{
    "resourceType": "Bundle",
    "id": "002a3c4a-ee7e-4952-b653-7a939aa3307e",
    "meta": {
        "profile": [
            "https://www.netzwerk-universitaetsmedizin.de/fhir/StructureDefinition/gecco-bundle"
        ]
    },
    "type": "transaction",
    "timestamp": "2022-05-26T18:29:20Z",
    "entry": [
        {
            "resource": {
                "resourceType": "Observation",
                "id": "9acb73f3-9a2c-4d40-b52c-831c8cc46be1",
                "meta": {
                    "profile": [
                        "https://www.netzwerk-universitaetsmedizin.de/fhir/StructureDefinition/sex-assigned-at-birth"
                    ]
                },
                "status": "final",
                "category": [
                    {
                        "coding": [
                            {
                                "system": "http://terminology.hl7.org/CodeSystem/observation-category",
                                "code": "social-history",
                                "display": "Social History"
                            }
                        ]
                    }
                ],
                "code": {
                    "coding": [
                        {
                            "system": "http://loinc.org",
                            "code": "76689-9",
                            "display": "Sex assigned at birth"
                        }
                    ]
                },
                "subject": {
                    "reference": "Patient/7e1e43a8-19d5-425c-a869-f450405c640a"
                },
                "effectiveDateTime": "2020-10-26T10:51:48+01:00",
                "valueCodeableConcept": {
                    "coding": [
                        {
                            "system": "http://fhir.de/CodeSystem/gender-amtlich-de",
                            "code": "D",
                            "display": "divers"
                        }
                    ],
                    "text": "Diverse"
                }
            },
            "request": {
                "method": "POST",
                "url": "Observation"
            }
        },
        {
            "resource": {
                "resourceType": "Observation",
                "id": "6fa9e2be-d15a-4e77-81fc-056dda521875",
                "meta": {
                    "profile": [
                        "https://www.netzwerk-universitaetsmedizin.de/fhir/StructureDefinition/oxygen-saturation"
                    ]
                },
                "identifier": [
                    {
                        "type": {
                            "coding": [
                                {
                                    "system": "http://terminology.hl7.org/CodeSystem/v2-0203",
                                    "code": "OBI"
                                }
                            ]
                        },
                        "system": "https://www.charite.de/fhir/CodeSystem/lab-identifiers",
                        "value": "2708-6_oxygenSaturation",
                        "assigner": {
                            "reference": "Organization/Charit\u00e9"
                        }
                    }
                ],
                "status": "final",
                "category": [
                    {
                        "coding": [
                            {
                                "system": "http://terminology.hl7.org/CodeSystem/observation-category",
                                "code": "vital-signs"
                            }
                        ]
                    }
                ],
                "code": {
                    "coding": [
                        {
                            "system": "http://loinc.org",
                            "code": "2708-6",
                            "display": "Oxygen saturation in Arterial blood"
                        }
                    ],
                    "text": "Oxygen saturation in Arterial blood"
                },
                "subject": {
                    "reference": "Patient/7e1e43a8-19d5-425c-a869-f450405c640a"
                },
                "effectiveDateTime": "2020-09-21",
                "valueQuantity": {
                    "value": 98,
                    "unit": "%",
                    "system": "http://unitsofmeasure.org",
                    "code": "%"
                }
            },
            "request": {
                "method": "POST",
                "url": "Observation"
            }
        },
        {
            "resource": {
                "resourceType": "Condition",
                "id": "ef325840-ac25-4f22-ba03-c5a6fddcdb0c",
                "meta": {
                    "profile": [
                        "https://www.netzwerk-universitaetsmedizin.de/fhir/StructureDefinition/diabetes-mellitus"
                    ]
                },
                "clinicalStatus": {
                    "coding": [
                        {
                            "system": "http://terminology.hl7.org/CodeSystem/condition-clinical",
                            "code": "active",
                            "display": "Active"
                        }
                    ]
                },
                "verificationStatus": {
                    "coding": [
                        {
                            "system": "http://terminology.hl7.org/CodeSystem/condition-ver-status",
                            "code": "confirmed",
                            "display": "Confirmed"
                        },
                        {
                            "system": "http://snomed.info/sct",
                            "code": "410605003",
                            "display": "Confirmed present (qualifier value)"
                        }
                    ]
                },
                "category": [
                    {
                        "coding": [
                            {
                                "system": "http://snomed.info/sct",
                                "code": "408475000",
                                "display": "Diabetic medicine"
                            }
                        ]
                    }
                ],
                "code": {
                    "coding": [
                        {
                            "system": "http://snomed.info/sct",
                            "code": "44054006",
                            "display": "Diabetes mellitus type 2"
                        }
                    ]
                },
                "subject": {
                    "reference": "Patient/7e1e43a8-19d5-425c-a869-f450405c640a"
                },
                "recordedDate": "2020-10-06"
            },
            "request": {
                "method": "POST",
                "url": "Condition"
            }
        },
        {
            "resource": {
                "resourceType": "Observation",
                "id": "b08b1687-2ea1-4b14-9473-dd04389169ec",
                "meta": {
                    "profile": [
                        "https://www.netzwerk-universitaetsmedizin.de/fhir/StructureDefinition/sars-cov-2-igm-ser-pl-ql-ia"
                    ]
                },
                "identifier": [
                    {
                        "type": {
                            "coding": [
                                {
                                    "system": "http://terminology.hl7.org/CodeSystem/v2-0203",
                                    "code": "OBI"
                                }
                            ]
                        },
                        "system": "https://www.charite.de/fhir/CodeSystem/lab-identifiers",
                        "value": "94564-2_SARS-CoV-2-IgM-Ql",
                        "assigner": {
                            "reference": "Organization/Charit\u00e9"
                        }
                    }
                ],
                "status": "final",
                "category": [
                    {
                        "coding": [
                            {
                                "system": "http://loinc.org",
                                "code": "26436-6"
                            },
                            {
                                "system": "http://terminology.hl7.org/CodeSystem/observation-category",
                                "code": "laboratory"
                            }
                        ]
                    }
                ],
                "code": {
                    "coding": [
                        {
                            "system": "http://loinc.org",
                            "code": "94564-2",
                            "display": "SARS-CoV-2 (COVID-19) IgM Ab [Presence] in Serum or Plasma by Immunoassay"
                        }
                    ],
                    "text": "SARS-CoV-2 IgM antibodies qualitative"
                },
                "subject": {
                    "reference": "Patient/7e1e43a8-19d5-425c-a869-f450405c640a"
                },
                "effectiveDateTime": "2020-10-19T08:43:33+02:00",
                "valueCodeableConcept": {
                    "coding": [
                        {
                            "system": "http://snomed.info/sct",
                            "code": "260373001",
                            "display": "Detected (qualifier value)"
                        }
                    ]
                }
            },
            "request": {
                "method": "POST",
                "url": "Observation"
            }
        },
        {
            "resource": {
                "resourceType": "MedicationStatement",
                "id": "4eb08ef0-df16-4f58-8bae-3baf6689b1f7",
                "meta": {
                    "profile": [
                        "https://www.netzwerk-universitaetsmedizin.de/fhir/StructureDefinition/pharmacological-therapy-ace-inhibitors"
                    ]
                },
                "status": "stopped",
                "medicationCodeableConcept": {
                    "coding": [
                        {
                            "system": "http://snomed.info/sct",
                            "code": "41549009",
                            "display": "Product containing angiotensin-converting enzyme inhibitor (product)"
                        },
                        {
                            "system": "http://fhir.de/CodeSystem/bfarm/atc",
                            "code": "C09A",
                            "display": "ACE-HEMMER, REIN"
                        }
                    ],
                    "text": "ACE inhibitors"
                },
                "subject": {
                    "reference": "Patient/7e1e43a8-19d5-425c-a869-f450405c640a"
                },
                "effectiveDateTime": "2020-10-19T08:43:33+02:00"
            },
            "request": {
                "method": "POST",
                "url": "MedicationStatement"
            }
        },
        {
            "resource": {
                "resourceType": "Procedure",
                "id": "0ecfbae7-743f-4c35-aa4e-428890deb9df",
                "meta": {
                    "profile": [
                        "https://www.netzwerk-universitaetsmedizin.de/fhir/StructureDefinition/respiratory-therapies"
                    ]
                },
                "status": "not-done",
                "category": {
                    "coding": [
                        {
                            "system": "http://snomed.info/sct",
                            "code": "277132007",
                            "display": "Therapeutic procedure (procedure)"
                        }
                    ]
                },
                "code": {
                    "coding": [
                        {
                            "system": "http://snomed.info/sct",
                            "code": "53950000",
                            "display": "Respiratory therapy (procedure)"
                        }
                    ]
                },
                "subject": {
                    "reference": "Patient/7e1e43a8-19d5-425c-a869-f450405c640a"
                },
                "_performedDateTime": {
                    "extension": [
                        {
                            "url": "http://hl7.org/fhir/StructureDefinition/data-absent-reason",
                            "valueCode": "not-performed"
                        }
                    ]
                }
            },
            "request": {
                "method": "POST",
                "url": "Procedure"
            }
        },
        {
            "resource": {
                "resourceType": "Observation",
                "id": "3925fe1b-1b94-4132-bb32-7b4bc34b2a1e",
                "meta": {
                    "profile": [
                        "https://www.netzwerk-universitaetsmedizin.de/fhir/StructureDefinition/sars-cov-2-rt-pcr"
                    ]
                },
                "identifier": [
                    {
                        "type": {
                            "coding": [
                                {
                                    "system": "http://terminology.hl7.org/CodeSystem/v2-0203",
                                    "code": "OBI"
                                }
                            ]
                        },
                        "system": "https://www.charite.de/fhir/CodeSystem/lab-identifiers",
                        "value": "94500-6_SARS-CoV-2-RNA-Presence-in-Respiratory-specimen",
                        "assigner": {
                            "reference": "Organization/Charit\u00e9"
                        }
                    }
                ],
                "status": "final",
                "category": [
                    {
                        "coding": [
                            {
                                "system": "http://loinc.org",
                                "code": "26436-6"
                            },
                            {
                                "system": "http://terminology.hl7.org/CodeSystem/observation-category",
                                "code": "laboratory"
                            }
                        ]
                    }
                ],
                "code": {
                    "coding": [
                        {
                            "system": "http://loinc.org",
                            "code": "94500-6",
                            "display": "SARS-CoV-2 (COVID-19) RNA [Presence] in Respiratory specimen by NAA with probe detection"
                        }
                    ],
                    "text": "SARS-CoV-2-RNA (PCR)"
                },
                "subject": {
                    "reference": "Patient/7e1e43a8-19d5-425c-a869-f450405c640a"
                },
                "effectiveDateTime": "2020-10-16T08:49:21+02:00",
                "valueCodeableConcept": {
                    "coding": [
                        {
                            "system": "http://snomed.info/sct",
                            "code": "260373001",
                            "display": "Detected (qualifier value)"
                        }
                    ],
                    "text": "SARS-CoV-2-RNA positiv"
                }
            },
            "request": {
                "method": "POST",
                "url": "Observation"
            }
        },
        {
            "resource": {
                "resourceType": "Condition",
                "id": "3c44562a-a66e-4b3c-95d6-ea78173c852f",
                "meta": {
                    "profile": [
                        "https://www.netzwerk-universitaetsmedizin.de/fhir/StructureDefinition/chronic-liver-diseases"
                    ]
                },
                "verificationStatus": {
                    "coding": [
                        {
                            "system": "http://terminology.hl7.org/CodeSystem/condition-ver-status",
                            "code": "refuted",
                            "display": "Refuted"
                        },
                        {
                            "system": "http://snomed.info/sct",
                            "code": "410594000",
                            "display": "Definitely NOT present (qualifier value)"
                        }
                    ]
                },
                "category": [
                    {
                        "coding": [
                            {
                                "system": "http://snomed.info/sct",
                                "code": "408472002",
                                "display": "Hepatology"
                            }
                        ]
                    }
                ],
                "code": {
                    "coding": [
                        {
                            "system": "http://snomed.info/sct",
                            "code": "235890007",
                            "display": "Autoimmune liver disease"
                        }
                    ]
                },
                "subject": {
                    "reference": "Patient/7e1e43a8-19d5-425c-a869-f450405c640a"
                },
                "recordedDate": "2020-10-06"
            },
            "request": {
                "method": "POST",
                "url": "Condition"
            }
        },
        {
            "resource": {
                "resourceType": "DiagnosticReport",
                "id": "a30f5c42-8b4d-4cac-8118-55e7d876a8e8",
                "meta": {
                    "profile": [
                        "https://www.netzwerk-universitaetsmedizin.de/fhir/StructureDefinition/diagnostic-report-radiology"
                    ]
                },
                "status": "final",
                "category": [
                    {
                        "coding": [
                            {
                                "system": "http://loinc.org",
                                "code": "18726-0",
                                "display": "Radiology studies (set)"
                            },
                            {
                                "system": "http://terminology.hl7.org/CodeSystem/v2-0074",
                                "code": "RAD",
                                "display": "Radiology"
                            }
                        ]
                    }
                ],
                "code": {
                    "coding": [
                        {
                            "system": "http://loinc.org",
                            "code": "18748-4",
                            "display": "Diagnostic imaging study"
                        }
                    ]
                },
                "subject": {
                    "reference": "Patient/7e1e43a8-19d5-425c-a869-f450405c640a"
                },
                "effectiveDateTime": "2020-09-30",
                "conclusion": "Normalbefund",
                "conclusionCode": [
                    {
                        "coding": [
                            {
                                "system": "http://snomed.info/sct",
                                "code": "118247008:{363713009=17621005}",
                                "display": "|Radiologic finding (finding)|:|Has interpretation (attribute)|=|Normal (qualifier value)|"
                            }
                        ]
                    }
                ]
            },
            "request": {
                "method": "POST",
                "url": "DiagnosticReport"
            }
        },
        {
            "resource": {
                "resourceType": "Condition",
                "id": "b2d0c817-38b6-4937-861b-d406c0f56a60",
                "meta": {
                    "profile": [
                        "https://www.netzwerk-universitaetsmedizin.de/fhir/StructureDefinition/rheumatological-immunological-diseases"
                    ]
                },
                "clinicalStatus": {
                    "coding": [
                        {
                            "system": "http://terminology.hl7.org/CodeSystem/condition-clinical",
                            "code": "active",
                            "display": "Active"
                        }
                    ]
                },
                "verificationStatus": {
                    "coding": [
                        {
                            "system": "http://terminology.hl7.org/CodeSystem/condition-ver-status",
                            "code": "confirmed",
                            "display": "Confirmed"
                        },
                        {
                            "system": "http://snomed.info/sct",
                            "code": "410605003",
                            "display": "Confirmed present (qualifier value)"
                        }
                    ]
                },
                "category": [
                    {
                        "coding": [
                            {
                                "system": "http://snomed.info/sct",
                                "code": "394810000",
                                "display": "Rheumatology"
                            },
                            {
                                "system": "http://snomed.info/sct",
                                "code": "408480009",
                                "display": "Clinical immunology"
                            }
                        ]
                    }
                ],
                "code": {
                    "coding": [
                        {
                            "system": "http://snomed.info/sct",
                            "code": "24526004",
                            "display": "Inflammatory bowel disease"
                        }
                    ]
                },
                "subject": {
                    "reference": "Patient/7e1e43a8-19d5-425c-a869-f450405c640a"
                },
                "recordedDate": "2020-10-06"
            },
            "request": {
                "method": "POST",
                "url": "Condition"
            }
        },
        {
            "resource": {
                "resourceType": "Observation",
                "id": "220767b9-5760-40b8-8741-8772dae04c3f",
                "meta": {
                    "profile": [
                        "https://www.netzwerk-universitaetsmedizin.de/fhir/StructureDefinition/sars-cov-2-ab-pnl-ser-pl-ia"
                    ]
                },
                "identifier": [
                    {
                        "type": {
                            "coding": [
                                {
                                    "system": "http://terminology.hl7.org/CodeSystem/v2-0203",
                                    "code": "OBI"
                                }
                            ]
                        },
                        "system": "https://www.charite.de/fhir/CodeSystem/lab-identifiers",
                        "value": "94504-8_SARS-CoV-2-Ab-Panel",
                        "assigner": {
                            "reference": "Organization/Charit\u00e9"
                        }
                    }
                ],
                "status": "final",
                "category": [
                    {
                        "coding": [
                            {
                                "system": "http://loinc.org",
                                "code": "26436-6"
                            },
                            {
                                "system": "http://terminology.hl7.org/CodeSystem/observation-category",
                                "code": "laboratory"
                            }
                        ]
                    }
                ],
                "code": {
                    "coding": [
                        {
                            "system": "http://loinc.org",
                            "code": "94504-8",
                            "display": "SARS-CoV-2 (COVID-19) Ab panel - Serum or Plasma by Immunoassay"
                        }
                    ],
                    "text": "SARS-CoV-2 antibodies panel"
                },
                "subject": {
                    "reference": "Patient/7e1e43a8-19d5-425c-a869-f450405c640a"
                },
                "effectiveDateTime": "2020-10-19T08:43:33+02:00",
                "hasMember": [
                    {
                        "reference": "Observation/22732de8-3eb6-477e-81d6-28fb906b3e4e"
                    },
                    {
                        "reference": "Observation/70ca7d00-0d8b-42bb-9508-a8fc76e5c7ad"
                    },
                    {
                        "reference": "Observation/7e746710-fad4-474b-8a28-422863f3a2b8"
                    },
                    {
                        "reference": "Observation/f35f17da-f642-402d-8cf4-ff70607713a7"
                    },
                    {
                        "reference": "Observation/7297b0fd-3be7-4b88-a63a-6ba651152c41"
                    },
                    {
                        "reference": "Observation/da1fa3fe-a8a3-44b6-94c6-3497269436ec"
                    },
                    {
                        "reference": "Observation/b5adbc53-a1ee-4a57-9ede-fae4b4462bfb"
                    },
                    {
                        "reference": "Observation/b08b1687-2ea1-4b14-9473-dd04389169ec"
                    }
                ]
            },
            "request": {
                "method": "POST",
                "url": "Observation"
            }
        },
        {
            "resource": {
                "resourceType": "Procedure",
                "id": "4b25d237-886d-4aa7-945d-a70d903d8eea",
                "meta": {
                    "profile": [
                        "https://www.netzwerk-universitaetsmedizin.de/fhir/StructureDefinition/extracorporeal-membrane-oxygenation"
                    ]
                },
                "status": "completed",
                "category": {
                    "coding": [
                        {
                            "system": "http://snomed.info/sct",
                            "code": "277132007",
                            "display": "Therapeutic procedure (procedure)"
                        }
                    ]
                },
                "code": {
                    "coding": [
                        {
                            "system": "http://snomed.info/sct",
                            "code": "233573008",
                            "display": "Extracorporeal membrane oxygenation (procedure)"
                        }
                    ],
                    "text": "ECMO"
                },
                "subject": {
                    "reference": "Patient/7e1e43a8-19d5-425c-a869-f450405c640a"
                },
                "_performedDateTime": {
                    "extension": [
                        {
                            "url": "http://hl7.org/fhir/StructureDefinition/data-absent-reason",
                            "valueCode": "unknown"
                        }
                    ]
                }
            },
            "request": {
                "method": "POST",
                "url": "Procedure"
            }
        },
        {
            "resource": {
                "resourceType": "Observation",
                "id": "162918dc-dc70-4767-a6d5-34c7d67e280a",
                "meta": {
                    "profile": [
                        "https://www.netzwerk-universitaetsmedizin.de/fhir/StructureDefinition/body-temperature"
                    ]
                },
                "identifier": [
                    {
                        "type": {
                            "coding": [
                                {
                                    "system": "http://terminology.hl7.org/CodeSystem/v2-0203",
                                    "code": "OBI"
                                }
                            ]
                        },
                        "system": "https://www.charite.de/fhir/CodeSystem/observation-identifiers",
                        "value": "8310-5_BodyTemperature",
                        "assigner": {
                            "reference": "Organization/Charit\u00e9"
                        }
                    }
                ],
                "status": "final",
                "category": [
                    {
                        "coding": [
                            {
                                "system": "http://terminology.hl7.org/CodeSystem/observation-category",
                                "code": "vital-signs"
                            }
                        ]
                    }
                ],
                "code": {
                    "coding": [
                        {
                            "system": "http://loinc.org",
                            "code": "8310-5",
                            "display": "Body temperature"
                        },
                        {
                            "system": "http://snomed.info/sct",
                            "code": "386725007",
                            "display": "Body temperature (observable entity)"
                        }
                    ],
                    "text": "Body temperature"
                },
                "subject": {
                    "reference": "Patient/7e1e43a8-19d5-425c-a869-f450405c640a"
                },
                "effectiveDateTime": "2020-09-25",
                "valueQuantity": {
                    "value": 36.8,
                    "unit": "\u00b0C",
                    "system": "http://unitsofmeasure.org",
                    "code": "Cel"
                }
            },
            "request": {
                "method": "POST",
                "url": "Observation"
            }
        },
        {
            "resource": {
                "resourceType": "Observation",
                "id": "71e371b6-b801-4387-bd36-ea015b2df658",
                "meta": {
                    "profile": [
                        "https://www.netzwerk-universitaetsmedizin.de/fhir/StructureDefinition/sofa-score"
                    ]
                },
                "identifier": [
                    {
                        "type": {
                            "coding": [
                                {
                                    "system": "http://terminology.hl7.org/CodeSystem/v2-0203",
                                    "code": "OBI"
                                }
                            ]
                        },
                        "system": "https://www.charite.de/fhir/CodeSystem/observation-identifiers",
                        "value": "06_SOFA-Score",
                        "assigner": {
                            "reference": "Organization/Charit\u00e9"
                        }
                    }
                ],
                "status": "final",
                "category": [
                    {
                        "coding": [
                            {
                                "system": "http://terminology.hl7.org/CodeSystem/observation-category",
                                "code": "survey"
                            }
                        ]
                    }
                ],
                "code": {
                    "coding": [
                        {
                            "system": "https://www.netzwerk-universitaetsmedizin.de/fhir/CodeSystem/ecrf-parameter-codes",
                            "code": "06",
                            "display": "SOFA-Score"
                        }
                    ],
                    "text": "Sepsis-related organ failure assessment score"
                },
                "subject": {
                    "reference": "Patient/7e1e43a8-19d5-425c-a869-f450405c640a"
                },
                "effectiveDateTime": "2020-11-30T11:04:49+01:00",
                "valueInteger": 15
            },
            "request": {
                "method": "POST",
                "url": "Observation"
            }
        },
        {
            "resource": {
                "resourceType": "Condition",
                "id": "e3b0b67f-b0f6-4158-8efb-4bedfd9119b9",
                "meta": {
                    "profile": [
                        "https://www.netzwerk-universitaetsmedizin.de/fhir/StructureDefinition/human-immunodeficiency-virus-infection"
                    ]
                },
                "verificationStatus": {
                    "coding": [
                        {
                            "system": "http://terminology.hl7.org/CodeSystem/condition-ver-status",
                            "code": "refuted",
                            "display": "Refuted"
                        },
                        {
                            "system": "http://snomed.info/sct",
                            "code": "410594000",
                            "display": "Definitely NOT present (qualifier value)"
                        }
                    ]
                },
                "category": [
                    {
                        "coding": [
                            {
                                "system": "http://snomed.info/sct",
                                "code": "394807007",
                                "display": "Infectious diseases (specialty)"
                            }
                        ]
                    }
                ],
                "code": {
                    "coding": [
                        {
                            "system": "http://snomed.info/sct",
                            "code": "86406008",
                            "display": "Human immunodeficiency virus infection"
                        }
                    ]
                },
                "subject": {
                    "reference": "Patient/7e1e43a8-19d5-425c-a869-f450405c640a"
                },
                "recordedDate": "2020-10-06"
            },
            "request": {
                "method": "POST",
                "url": "Condition"
            }
        },
        {
            "resource": {
                "resourceType": "Patient",
                "id": "7e1e43a8-19d5-425c-a869-f450405c640a",
                "meta": {
                    "profile": [
                        "https://www.netzwerk-universitaetsmedizin.de/fhir/StructureDefinition/Patient"
                    ]
                },
                "extension": [
                    {
                        "url": "https://www.netzwerk-universitaetsmedizin.de/fhir/StructureDefinition/ethnic-group",
                        "valueCoding": {
                            "system": "http://snomed.info/sct",
                            "code": "26242008",
                            "display": "Mixed (qualifier value)"
                        }
                    },
                    {
                        "extension": [
                            {
                                "url": "dateTimeOfDocumentation",
                                "valueDateTime": "2020-10-01"
                            },
                            {
                                "url": "age",
                                "valueAge": {
                                    "value": 67,
                                    "unit": "years",
                                    "system": "http://unitsofmeasure.org",
                                    "code": "a"
                                }
                            }
                        ],
                        "url": "https://www.netzwerk-universitaetsmedizin.de/fhir/StructureDefinition/age"
                    }
                ],
                "birthDate": "1953-09-30",
                "identifier": [
                    {
                        "type": {
                            "coding": [
                                {
                                    "system": "http://terminology.hl7.org/CodeSystem/v2-0203",
                                    "code": "ANON"
                                }
                            ]
                        },
                        "system": "http://www.netzwerk-universitaetsmedizin.de/sid/crr-pseudonym",
                        "value": "40199399"
                    }
                ]
            },
            "request": {
                "method": "PUT",
                "url": "Patient/7e1e43a8-19d5-425c-a869-f450405c640a"
            }
        },
        {
            "resource": {
                "resourceType": "Observation",
                "id": "e6dea5c4-60b0-43cf-b1ca-410ddd34f264",
                "meta": {
                    "profile": [
                        "https://www.netzwerk-universitaetsmedizin.de/fhir/StructureDefinition/blood-gas-panel"
                    ]
                },
                "identifier": [
                    {
                        "type": {
                            "coding": [
                                {
                                    "system": "http://terminology.hl7.org/CodeSystem/v2-0203",
                                    "code": "OBI"
                                }
                            ]
                        },
                        "system": "https://www.charite.de/fhir/CodeSystem/lab-identifiers",
                        "value": "24336-0_gasPanelBldA",
                        "assigner": {
                            "reference": "Organization/Charit\u00e9"
                        }
                    }
                ],
                "status": "final",
                "category": [
                    {
                        "coding": [
                            {
                                "system": "http://loinc.org",
                                "code": "26436-6"
                            },
                            {
                                "system": "http://terminology.hl7.org/CodeSystem/observation-category",
                                "code": "laboratory"
                            },
                            {
                                "system": "http://loinc.org",
                                "code": "18767-4"
                            }
                        ]
                    }
                ],
                "code": {
                    "coding": [
                        {
                            "system": "http://loinc.org",
                            "code": "24336-0",
                            "display": "Gas panel - Arterial blood"
                        }
                    ],
                    "text": "Gas panel - Arterial blood"
                },
                "subject": {
                    "reference": "Patient/7e1e43a8-19d5-425c-a869-f450405c640a"
                },
                "effectiveDateTime": "2020-09-21",
                "hasMember": [
                    {
                        "reference": "Observation/ac8b697d-7088-4fbe-9ece-51df2d3f1e04"
                    },
                    {
                        "reference": "Observation/6a78560b-2f7c-4af5-a7bc-3c7d62ca8458"
                    },
                    {
                        "reference": "Observation/e39a18a6-63d7-4117-a38e-1f29be15f6fa"
                    },
                    {
                        "reference": "Observation/6fa9e2be-d15a-4e77-81fc-056dda521875"
                    },
                    {
                        "reference": "Observation/c9f96dd3-a77a-4aa9-9b12-43cd1972d9a4"
                    }
                ]
            },
            "request": {
                "method": "POST",
                "url": "Observation"
            }
        },
        {
            "resource": {
                "resourceType": "Observation",
                "id": "c8079220-594c-42dc-8cea-7a52a6833c2c",
                "meta": {
                    "profile": [
                        "https://www.netzwerk-universitaetsmedizin.de/fhir/StructureDefinition/heart-rate"
                    ]
                },
                "identifier": [
                    {
                        "type": {
                            "coding": [
                                {
                                    "system": "http://terminology.hl7.org/CodeSystem/v2-0203",
                                    "code": "OBI"
                                }
                            ]
                        },
                        "system": "https://www.charite.de/fhir/CodeSystem/observation-identifiers",
                        "value": "8867-4_HeartRate",
                        "assigner": {
                            "reference": "Organization/Charit\u00e9"
                        }
                    }
                ],
                "status": "final",
                "category": [
                    {
                        "coding": [
                            {
                                "system": "http://terminology.hl7.org/CodeSystem/observation-category",
                                "code": "vital-signs"
                            }
                        ]
                    }
                ],
                "code": {
                    "coding": [
                        {
                            "system": "http://loinc.org",
                            "code": "8867-4",
                            "display": "Heart rate"
                        },
                        {
                            "system": "http://snomed.info/sct",
                            "code": "364075005",
                            "display": "Heart rate (observable entity)"
                        }
                    ],
                    "text": "Heart rate"
                },
                "subject": {
                    "reference": "Patient/7e1e43a8-19d5-425c-a869-f450405c640a"
                },
                "effectiveDateTime": "2020-09-25",
                "valueQuantity": {
                    "value": 81,
                    "unit": "per minute",
                    "system": "http://unitsofmeasure.org",
                    "code": "/min"
                }
            },
            "request": {
                "method": "POST",
                "url": "Observation"
            }
        },
        {
            "resource": {
                "resourceType": "Observation",
                "id": "e39a18a6-63d7-4117-a38e-1f29be15f6fa",
                "meta": {
                    "profile": [
                        "https://www.netzwerk-universitaetsmedizin.de/fhir/StructureDefinition/oxygen-partial-pressure"
                    ]
                },
                "identifier": [
                    {
                        "type": {
                            "coding": [
                                {
                                    "system": "http://terminology.hl7.org/CodeSystem/v2-0203",
                                    "code": "OBI"
                                }
                            ]
                        },
                        "system": "https://www.charite.de/fhir/CodeSystem/lab-identifiers",
                        "value": "2703-7_paO2",
                        "assigner": {
                            "reference": "Organization/Charit\u00e9"
                        }
                    }
                ],
                "status": "final",
                "category": [
                    {
                        "coding": [
                            {
                                "system": "http://loinc.org",
                                "code": "26436-6"
                            },
                            {
                                "system": "http://terminology.hl7.org/CodeSystem/observation-category",
                                "code": "laboratory"
                            },
                            {
                                "system": "http://loinc.org",
                                "code": "18767-4"
                            }
                        ]
                    }
                ],
                "code": {
                    "coding": [
                        {
                            "system": "http://loinc.org",
                            "code": "2703-7",
                            "display": "Oxygen [Partial pressure] in Arterial blood"
                        }
                    ],
                    "text": "Oxygen [Partial pressure] in Arterial blood"
                },
                "subject": {
                    "reference": "Patient/7e1e43a8-19d5-425c-a869-f450405c640a"
                },
                "effectiveDateTime": "2020-09-21",
                "valueQuantity": {
                    "value": 67,
                    "unit": "mmHg",
                    "system": "http://unitsofmeasure.org",
                    "code": "mm[Hg]"
                }
            },
            "request": {
                "method": "POST",
                "url": "Observation"
            }
        },
        {
            "resource": {
                "resourceType": "Observation",
                "id": "b5adbc53-a1ee-4a57-9ede-fae4b4462bfb",
                "meta": {
                    "profile": [
                        "https://www.netzwerk-universitaetsmedizin.de/fhir/StructureDefinition/sars-cov-2-igm-ser-pl-ia-acnc"
                    ]
                },
                "identifier": [
                    {
                        "type": {
                            "coding": [
                                {
                                    "system": "http://terminology.hl7.org/CodeSystem/v2-0203",
                                    "code": "OBI"
                                }
                            ]
                        },
                        "system": "https://www.charite.de/fhir/CodeSystem/lab-identifiers",
                        "value": "94505-5_SARS-CoV-2-IgM-Qn",
                        "assigner": {
                            "reference": "Organization/Charit\u00e9"
                        }
                    }
                ],
                "status": "final",
                "category": [
                    {
                        "coding": [
                            {
                                "system": "http://loinc.org",
                                "code": "26436-6"
                            },
                            {
                                "system": "http://terminology.hl7.org/CodeSystem/observation-category",
                                "code": "laboratory"
                            }
                        ]
                    }
                ],
                "code": {
                    "coding": [
                        {
                            "system": "http://loinc.org",
                            "code": "94506-3",
                            "display": "SARS-CoV-2 (COVID-19) IgM Ab [Units/volume] in Serum or Plasma by Immunoassay"
                        }
                    ],
                    "text": "SARS-CoV-2 IgM antibodies quantitative"
                },
                "subject": {
                    "reference": "Patient/7e1e43a8-19d5-425c-a869-f450405c640a"
                },
                "effectiveDateTime": "2020-10-19T08:43:33+02:00",
                "valueQuantity": {
                    "value": 219.5,
                    "unit": "[arb'U]/mL",
                    "system": "http://unitsofmeasure.org",
                    "code": "[arb'U]/mL"
                }
            },
            "request": {
                "method": "POST",
                "url": "Observation"
            }
        }
    ]
}
