{
    "resourceType": "Bundle",
    "id": "e8a89d00-a20c-4b64-9f19-386617325e86",
    "meta": {
        "profile": [
            "https://www.netzwerk-universitaetsmedizin.de/fhir/StructureDefinition/gecco-bundle"
        ]
    },
    "type": "transaction",
    "timestamp": "2022-05-26T18:29:40Z",
    "entry": [
        {
            "resource": {
                "resourceType": "Condition",
                "id": "c8aa5893-1f5e-4d1b-b37d-146a48a39581",
                "meta": {
                    "profile": [
                        "https://www.netzwerk-universitaetsmedizin.de/fhir/StructureDefinition/chronic-kidney-diseases"
                    ]
                },
                "clinicalStatus": {
                    "coding": [
                        {
                            "system": "http://terminology.hl7.org/CodeSystem/condition-clinical",
                            "code": "active",
                            "display": "Active"
                        }
                    ]
                },
                "verificationStatus": {
                    "coding": [
                        {
                            "system": "http://terminology.hl7.org/CodeSystem/condition-ver-status",
                            "code": "confirmed",
                            "display": "Confirmed"
                        },
                        {
                            "system": "http://snomed.info/sct",
                            "code": "410605003",
                            "display": "Confirmed present (qualifier value)"
                        }
                    ]
                },
                "category": [
                    {
                        "coding": [
                            {
                                "system": "http://snomed.info/sct",
                                "code": "394589003",
                                "display": "Nephrology (qualifier value)"
                            }
                        ]
                    }
                ],
                "code": {
                    "coding": [
                        {
                            "system": "http://snomed.info/sct",
                            "code": "709044004",
                            "display": "Chronic kidney disease (disorder)"
                        }
                    ]
                },
                "subject": {
                    "reference": "Patient/95eb6353-ac9a-4d20-bba6-b3d8c5127370"
                },
                "recordedDate": "2020-10-28T17:01:09+01:00"
            },
            "request": {
                "method": "POST",
                "url": "Condition"
            }
        },
        {
            "resource": {
                "resourceType": "Observation",
                "id": "a9d2f75a-7782-4d55-8284-0dcfbf21b8e7",
                "meta": {
                    "profile": [
                        "https://www.netzwerk-universitaetsmedizin.de/fhir/StructureDefinition/sex-assigned-at-birth"
                    ]
                },
                "status": "final",
                "category": [
                    {
                        "coding": [
                            {
                                "system": "http://terminology.hl7.org/CodeSystem/observation-category",
                                "code": "social-history",
                                "display": "Social History"
                            }
                        ]
                    }
                ],
                "code": {
                    "coding": [
                        {
                            "system": "http://loinc.org",
                            "code": "76689-9",
                            "display": "Sex assigned at birth"
                        }
                    ]
                },
                "subject": {
                    "reference": "Patient/95eb6353-ac9a-4d20-bba6-b3d8c5127370"
                },
                "effectiveDateTime": "2020-10-26T10:51:48+01:00",
                "valueCodeableConcept": {
                    "coding": [
                        {
                            "system": "http://hl7.org/fhir/administrative-gender",
                            "code": "female",
                            "display": "Female"
                        }
                    ],
                    "text": "Female"
                }
            },
            "request": {
                "method": "POST",
                "url": "Observation"
            }
        },
        {
            "resource": {
                "resourceType": "Consent",
                "id": "e1c90e84-aa7b-4999-8036-27f88dd7b60e",
                "meta": {
                    "profile": [
                        "https://www.netzwerk-universitaetsmedizin.de/fhir/StructureDefinition/do-not-resuscitate-order"
                    ]
                },
                "status": "active",
                "scope": {
                    "coding": [
                        {
                            "system": "http://terminology.hl7.org/CodeSystem/consentscope",
                            "code": "adr",
                            "display": "Advanced Care Directive"
                        }
                    ]
                },
                "category": [
                    {
                        "coding": [
                            {
                                "system": "http://terminology.hl7.org/CodeSystem/consentcategorycodes",
                                "code": "dnr",
                                "display": "Do Not Resuscitate"
                            }
                        ]
                    }
                ],
                "patient": {
                    "reference": "Patient/95eb6353-ac9a-4d20-bba6-b3d8c5127370"
                },
                "dateTime": "2021-09-01",
                "policy": [
                    {
                        "uri": "https://www.aerzteblatt.de/archiv/65440/DNR-Anordnungen-Das-fehlende-Bindeglied"
                    }
                ],
                "provision": {
                    "code": [
                        {
                            "coding": [
                                {
                                    "system": "http://snomed.info/sct",
                                    "code": "304252001",
                                    "display": "For resuscitation"
                                }
                            ]
                        }
                    ]
                }
            },
            "request": {
                "method": "POST",
                "url": "Consent"
            }
        },
        {
            "resource": {
                "resourceType": "Condition",
                "id": "9cf51de2-6bde-4921-a41a-677869f4c74a",
                "meta": {
                    "profile": [
                        "https://www.netzwerk-universitaetsmedizin.de/fhir/StructureDefinition/malignant-neoplastic-disease"
                    ]
                },
                "clinicalStatus": {
                    "coding": [
                        {
                            "system": "http://terminology.hl7.org/CodeSystem/condition-clinical",
                            "code": "remission",
                            "display": "Remission"
                        }
                    ]
                },
                "verificationStatus": {
                    "coding": [
                        {
                            "system": "http://terminology.hl7.org/CodeSystem/condition-ver-status",
                            "code": "confirmed",
                            "display": "Confirmed"
                        },
                        {
                            "system": "http://snomed.info/sct",
                            "code": "410605003",
                            "display": "Confirmed present (qualifier value)"
                        }
                    ]
                },
                "category": [
                    {
                        "coding": [
                            {
                                "system": "http://snomed.info/sct",
                                "code": "394593009",
                                "display": "Medical oncology (qualifier value)"
                            }
                        ]
                    }
                ],
                "code": {
                    "coding": [
                        {
                            "system": "http://snomed.info/sct",
                            "code": "363346000",
                            "display": "Malignant neoplastic disease"
                        }
                    ]
                },
                "subject": {
                    "reference": "Patient/95eb6353-ac9a-4d20-bba6-b3d8c5127370"
                },
                "recordedDate": "2020-10-06"
            },
            "request": {
                "method": "POST",
                "url": "Condition"
            }
        },
        {
            "resource": {
                "resourceType": "Observation",
                "id": "example-observation-bp-invasive",
                "meta": {
                    "profile": [
                        "https://www.netzwerk-universitaetsmedizin.de/fhir/StructureDefinition/blood-pressure"
                    ]
                },
                "identifier": [
                    {
                        "type": {
                            "coding": [
                                {
                                    "system": "http://terminology.hl7.org/CodeSystem/v2-0203",
                                    "code": "OBI"
                                }
                            ]
                        },
                        "system": "https://www.charite.de/fhir/CodeSystem/observation-identifiers",
                        "value": "85354-9_BloodPressure",
                        "assigner": {
                            "reference": "Organization/Charit\u00e9"
                        }
                    }
                ],
                "status": "final",
                "category": [
                    {
                        "coding": [
                            {
                                "system": "http://terminology.hl7.org/CodeSystem/observation-category",
                                "code": "vital-signs"
                            }
                        ]
                    }
                ],
                "code": {
                    "coding": [
                        {
                            "system": "http://loinc.org",
                            "code": "85354-9",
                            "display": "Blood pressure panel with all children optional"
                        },
                        {
                            "system": "http://snomed.info/sct",
                            "code": "75367002",
                            "display": "Blood pressure (observable entity)"
                        }
                    ],
                    "text": "Blood pressure invasive"
                },
                "subject": {
                    "reference": "Patient/95eb6353-ac9a-4d20-bba6-b3d8c5127370"
                },
                "effectiveDateTime": "2021-04-14",
                "method": {
                    "coding": [
                        {
                            "system": "http://snomed.info/sct",
                            "code": "10179008",
                            "display": "Invasive (qualifier value)"
                        }
                    ]
                },
                "component": [
                    {
                        "code": {
                            "coding": [
                                {
                                    "system": "http://loinc.org",
                                    "code": "8480-6",
                                    "display": "Systolic blood pressure"
                                },
                                {
                                    "system": "http://loinc.org",
                                    "code": "76215-3",
                                    "display": "Invasive Systolic blood pressure"
                                },
                                {
                                    "system": "http://snomed.info/sct",
                                    "code": "271649006",
                                    "display": "Systolic blood pressure"
                                },
                                {
                                    "system": "http://snomed.info/sct",
                                    "code": "251071003",
                                    "display": "Invasive systolic arterial pressure (observable entity)"
                                }
                            ],
                            "text": "Invasive systolic blood pressure"
                        },
                        "valueQuantity": {
                            "value": 136,
                            "unit": "mmHg",
                            "system": "http://unitsofmeasure.org",
                            "code": "mm[Hg]"
                        }
                    },
                    {
                        "code": {
                            "coding": [
                                {
                                    "system": "http://loinc.org",
                                    "code": "8462-4",
                                    "display": "Diastolic blood pressure"
                                },
                                {
                                    "system": "http://loinc.org",
                                    "code": "76213-8",
                                    "display": "Invasive Diastolic blood pressure"
                                },
                                {
                                    "system": "http://snomed.info/sct",
                                    "code": "271650006",
                                    "display": "Diastolic blood pressure (observable entity)"
                                },
                                {
                                    "system": "http://snomed.info/sct",
                                    "code": "251073000",
                                    "display": "Invasive diastolic arterial pressure (observable entity)"
                                }
                            ],
                            "text": "Invasive diastolic blood pressure"
                        },
                        "valueQuantity": {
                            "value": 87,
                            "unit": "mmHg",
                            "system": "http://unitsofmeasure.org",
                            "code": "mm[Hg]"
                        }
                    }
                ]
            },
            "request": {
                "method": "POST",
                "url": "Observation"
            }
        },
        {
            "resource": {
                "resourceType": "MedicationStatement",
                "id": "a5cfc927-ba0e-4215-a4a2-536528962fe9",
                "meta": {
                    "profile": [
                        "https://www.netzwerk-universitaetsmedizin.de/fhir/StructureDefinition/pharmacological-therapy-immunoglobulins"
                    ]
                },
                "status": "active",
                "medicationCodeableConcept": {
                    "coding": [
                        {
                            "system": "http://snomed.info/sct",
                            "code": "333710000",
                            "display": "Product containing immunoglobulin (product)"
                        },
                        {
                            "system": "http://fhir.de/CodeSystem/bfarm/atc",
                            "code": "J06B",
                            "display": "IMMUNGLOBULINE"
                        }
                    ],
                    "text": "immunoglobulins"
                },
                "subject": {
                    "reference": "Patient/95eb6353-ac9a-4d20-bba6-b3d8c5127370"
                },
                "effectiveDateTime": "2020-10-19T08:43:33+02:00"
            },
            "request": {
                "method": "POST",
                "url": "MedicationStatement"
            }
        },
        {
            "resource": {
                "resourceType": "Observation",
                "id": "b08b1687-2ea1-4b14-9473-dd04389169ec",
                "meta": {
                    "profile": [
                        "https://www.netzwerk-universitaetsmedizin.de/fhir/StructureDefinition/sars-cov-2-igm-ser-pl-ql-ia"
                    ]
                },
                "identifier": [
                    {
                        "type": {
                            "coding": [
                                {
                                    "system": "http://terminology.hl7.org/CodeSystem/v2-0203",
                                    "code": "OBI"
                                }
                            ]
                        },
                        "system": "https://www.charite.de/fhir/CodeSystem/lab-identifiers",
                        "value": "94564-2_SARS-CoV-2-IgM-Ql",
                        "assigner": {
                            "reference": "Organization/Charit\u00e9"
                        }
                    }
                ],
                "status": "final",
                "category": [
                    {
                        "coding": [
                            {
                                "system": "http://loinc.org",
                                "code": "26436-6"
                            },
                            {
                                "system": "http://terminology.hl7.org/CodeSystem/observation-category",
                                "code": "laboratory"
                            }
                        ]
                    }
                ],
                "code": {
                    "coding": [
                        {
                            "system": "http://loinc.org",
                            "code": "94564-2",
                            "display": "SARS-CoV-2 (COVID-19) IgM Ab [Presence] in Serum or Plasma by Immunoassay"
                        }
                    ],
                    "text": "SARS-CoV-2 IgM antibodies qualitative"
                },
                "subject": {
                    "reference": "Patient/95eb6353-ac9a-4d20-bba6-b3d8c5127370"
                },
                "effectiveDateTime": "2020-10-19T08:43:33+02:00",
                "valueCodeableConcept": {
                    "coding": [
                        {
                            "system": "http://snomed.info/sct",
                            "code": "260373001",
                            "display": "Detected (qualifier value)"
                        }
                    ]
                }
            },
            "request": {
                "method": "POST",
                "url": "Observation"
            }
        },
        {
            "resource": {
                "resourceType": "MedicationStatement",
                "id": "4eb08ef0-df16-4f58-8bae-3baf6689b1f7",
                "meta": {
                    "profile": [
                        "https://www.netzwerk-universitaetsmedizin.de/fhir/StructureDefinition/pharmacological-therapy-ace-inhibitors"
                    ]
                },
                "status": "stopped",
                "medicationCodeableConcept": {
                    "coding": [
                        {
                            "system": "http://snomed.info/sct",
                            "code": "41549009",
                            "display": "Product containing angiotensin-converting enzyme inhibitor (product)"
                        },
                        {
                            "system": "http://fhir.de/CodeSystem/bfarm/atc",
                            "code": "C09A",
                            "display": "ACE-HEMMER, REIN"
                        }
                    ],
                    "text": "ACE inhibitors"
                },
                "subject": {
                    "reference": "Patient/95eb6353-ac9a-4d20-bba6-b3d8c5127370"
                },
                "effectiveDateTime": "2020-10-19T08:43:33+02:00"
            },
            "request": {
                "method": "POST",
                "url": "MedicationStatement"
            }
        },
        {
            "resource": {
                "resourceType": "Observation",
                "id": "95146b8a-d278-410f-a010-5296f89ed137",
                "meta": {
                    "profile": [
                        "https://www.netzwerk-universitaetsmedizin.de/fhir/StructureDefinition/smoking-status"
                    ]
                },
                "status": "final",
                "category": [
                    {
                        "coding": [
                            {
                                "system": "http://terminology.hl7.org/CodeSystem/observation-category",
                                "code": "social-history",
                                "display": "Social History"
                            }
                        ]
                    }
                ],
                "code": {
                    "coding": [
                        {
                            "system": "http://loinc.org",
                            "code": "72166-2",
                            "display": "Tobacco smoking status"
                        }
                    ]
                },
                "subject": {
                    "reference": "Patient/95eb6353-ac9a-4d20-bba6-b3d8c5127370"
                },
                "effectiveDateTime": "2020-10-06",
                "valueCodeableConcept": {
                    "coding": [
                        {
                            "system": "http://loinc.org",
                            "code": "LA15920-4",
                            "display": "Former smoker"
                        }
                    ],
                    "text": "Patient is former smoker"
                }
            },
            "request": {
                "method": "POST",
                "url": "Observation"
            }
        },
        {
            "resource": {
                "resourceType": "Procedure",
                "id": "65fc4ea4-bff2-4708-a0ad-95f96d9a29d0",
                "meta": {
                    "profile": [
                        "https://www.netzwerk-universitaetsmedizin.de/fhir/StructureDefinition/prone-position"
                    ]
                },
                "status": "not-done",
                "category": {
                    "coding": [
                        {
                            "system": "http://snomed.info/sct",
                            "code": "225287004",
                            "display": "Procedures relating to positioning and support (procedure)"
                        }
                    ]
                },
                "code": {
                    "coding": [
                        {
                            "system": "http://snomed.info/sct",
                            "code": "431182000",
                            "display": "Placing subject in prone position (procedure)"
                        }
                    ],
                    "text": "Prone position"
                },
                "subject": {
                    "reference": "Patient/95eb6353-ac9a-4d20-bba6-b3d8c5127370"
                },
                "_performedDateTime": {
                    "extension": [
                        {
                            "url": "http://hl7.org/fhir/StructureDefinition/data-absent-reason",
                            "valueCode": "not-performed"
                        }
                    ]
                }
            },
            "request": {
                "method": "POST",
                "url": "Procedure"
            }
        },
        {
            "resource": {
                "resourceType": "Observation",
                "id": "22732de8-3eb6-477e-81d6-28fb906b3e4e",
                "meta": {
                    "profile": [
                        "https://www.netzwerk-universitaetsmedizin.de/fhir/StructureDefinition/sars-cov-2-ab-ser-pl-ia-acnc"
                    ]
                },
                "identifier": [
                    {
                        "type": {
                            "coding": [
                                {
                                    "system": "http://terminology.hl7.org/CodeSystem/v2-0203",
                                    "code": "OBI"
                                }
                            ]
                        },
                        "system": "https://www.charite.de/fhir/CodeSystem/lab-identifiers",
                        "value": "94769-7_SARS-CoV-2-Ab-Qn",
                        "assigner": {
                            "reference": "Organization/Charit\u00e9"
                        }
                    }
                ],
                "status": "final",
                "category": [
                    {
                        "coding": [
                            {
                                "system": "http://loinc.org",
                                "code": "26436-6"
                            },
                            {
                                "system": "http://terminology.hl7.org/CodeSystem/observation-category",
                                "code": "laboratory"
                            }
                        ]
                    }
                ],
                "code": {
                    "coding": [
                        {
                            "system": "http://loinc.org",
                            "code": "94769-7",
                            "display": "SARS-CoV-2 (COVID-19) Ab [Units/volume] in Serum or Plasma by Immunoassay"
                        }
                    ],
                    "text": "SARS-CoV-2 antibodies quantitative"
                },
                "subject": {
                    "reference": "Patient/95eb6353-ac9a-4d20-bba6-b3d8c5127370"
                },
                "effectiveDateTime": "2020-10-19T08:43:33+02:00",
                "valueQuantity": {
                    "value": 240,
                    "unit": "[IU]/mL",
                    "system": "http://unitsofmeasure.org",
                    "code": "[IU]/mL"
                }
            },
            "request": {
                "method": "POST",
                "url": "Observation"
            }
        },
        {
            "resource": {
                "resourceType": "Observation",
                "id": "example-observation-resp-rate-on-ventilator",
                "meta": {
                    "profile": [
                        "https://www.netzwerk-universitaetsmedizin.de/fhir/StructureDefinition/respiratory-rate"
                    ]
                },
                "identifier": [
                    {
                        "type": {
                            "coding": [
                                {
                                    "system": "http://terminology.hl7.org/CodeSystem/v2-0203",
                                    "code": "OBI"
                                }
                            ]
                        },
                        "system": "https://www.charite.de/fhir/CodeSystem/observation-identifiers",
                        "value": "9279-1_RespiratoryRate",
                        "assigner": {
                            "reference": "Organization/Charit\u00e9"
                        }
                    }
                ],
                "status": "final",
                "category": [
                    {
                        "coding": [
                            {
                                "system": "http://terminology.hl7.org/CodeSystem/observation-category",
                                "code": "vital-signs"
                            }
                        ]
                    }
                ],
                "code": {
                    "coding": [
                        {
                            "system": "http://loinc.org",
                            "code": "9279-1",
                            "display": "Respiratory rate"
                        },
                        {
                            "system": "http://loinc.org",
                            "code": "19840-8",
                            "display": "Breath rate spontaneous and mechanical --on ventilator"
                        },
                        {
                            "system": "http://snomed.info/sct",
                            "code": "86290005",
                            "display": "Respiratory rate (observable entity)"
                        }
                    ],
                    "text": "Respiratory rate on ventilator"
                },
                "subject": {
                    "reference": "Patient/95eb6353-ac9a-4d20-bba6-b3d8c5127370"
                },
                "effectiveDateTime": "2021-04-14",
                "valueQuantity": {
                    "value": 16,
                    "unit": "per minute",
                    "system": "http://unitsofmeasure.org",
                    "code": "/min"
                }
            },
            "request": {
                "method": "POST",
                "url": "Observation"
            }
        },
        {
            "resource": {
                "resourceType": "Condition",
                "id": "a2341941-cb9e-4534-99c1-cf03793e720a",
                "meta": {
                    "profile": [
                        "https://www.netzwerk-universitaetsmedizin.de/fhir/StructureDefinition/cardiovascular-diseases"
                    ]
                },
                "clinicalStatus": {
                    "coding": [
                        {
                            "system": "http://terminology.hl7.org/CodeSystem/condition-clinical",
                            "code": "active",
                            "display": "Active"
                        }
                    ]
                },
                "verificationStatus": {
                    "coding": [
                        {
                            "system": "http://terminology.hl7.org/CodeSystem/condition-ver-status",
                            "code": "confirmed",
                            "display": "Confirmed"
                        },
                        {
                            "system": "http://snomed.info/sct",
                            "code": "410605003",
                            "display": "Confirmed present (qualifier value)"
                        }
                    ]
                },
                "category": [
                    {
                        "coding": [
                            {
                                "system": "http://snomed.info/sct",
                                "code": "722414000",
                                "display": "Vascular medicine"
                            }
                        ]
                    }
                ],
                "code": {
                    "coding": [
                        {
                            "system": "http://snomed.info/sct",
                            "code": "49601007",
                            "display": "Cardiovascular disease"
                        }
                    ]
                },
                "subject": {
                    "reference": "Patient/95eb6353-ac9a-4d20-bba6-b3d8c5127370"
                },
                "recordedDate": "2020-10-06"
            },
            "request": {
                "method": "POST",
                "url": "Condition"
            }
        },
        {
            "resource": {
                "resourceType": "Procedure",
                "id": "b03c0583-c7fb-4077-b5ca-b4609746f3f6",
                "meta": {
                    "profile": [
                        "https://www.netzwerk-universitaetsmedizin.de/fhir/StructureDefinition/apheresis"
                    ]
                },
                "status": "in-progress",
                "category": {
                    "coding": [
                        {
                            "system": "http://snomed.info/sct",
                            "code": "277132007",
                            "display": "Therapeutic procedure (procedure)"
                        }
                    ]
                },
                "code": {
                    "coding": [
                        {
                            "system": "http://snomed.info/sct",
                            "code": "127788007",
                            "display": "Apheresis (procedure)"
                        }
                    ],
                    "text": "Apheresis"
                },
                "subject": {
                    "reference": "Patient/95eb6353-ac9a-4d20-bba6-b3d8c5127370"
                },
                "_performedDateTime": {
                    "extension": [
                        {
                            "url": "http://hl7.org/fhir/StructureDefinition/data-absent-reason",
                            "valueCode": "unknown"
                        }
                    ]
                }
            },
            "request": {
                "method": "POST",
                "url": "Procedure"
            }
        },
        {
            "resource": {
                "resourceType": "Observation",
                "id": "ef83b23e-8463-4e3d-8a55-52b0768dfc5b",
                "meta": {
                    "profile": [
                        "https://www.netzwerk-universitaetsmedizin.de/fhir/StructureDefinition/sars-cov-2-rt-pcr"
                    ]
                },
                "identifier": [
                    {
                        "type": {
                            "coding": [
                                {
                                    "system": "http://terminology.hl7.org/CodeSystem/v2-0203",
                                    "code": "OBI"
                                }
                            ]
                        },
                        "system": "https://www.charite.de/fhir/CodeSystem/lab-identifiers",
                        "value": "94500-6_SARS-CoV-2-RNA-Presence-in-Respiratory-specimen",
                        "assigner": {
                            "reference": "Organization/Charit\u00e9"
                        }
                    }
                ],
                "status": "final",
                "category": [
                    {
                        "coding": [
                            {
                                "system": "http://loinc.org",
                                "code": "26436-6"
                            },
                            {
                                "system": "http://terminology.hl7.org/CodeSystem/observation-category",
                                "code": "laboratory"
                            }
                        ]
                    }
                ],
                "code": {
                    "coding": [
                        {
                            "system": "http://loinc.org",
                            "code": "94500-6",
                            "display": "SARS-CoV-2 (COVID-19) RNA [Presence] in Respiratory specimen by NAA with probe detection"
                        }
                    ],
                    "text": "SARS-CoV-2-RNA (PCR)"
                },
                "subject": {
                    "reference": "Patient/95eb6353-ac9a-4d20-bba6-b3d8c5127370"
                },
                "effectiveDateTime": "2020-10-16T08:49:21+02:00",
                "valueCodeableConcept": {
                    "coding": [
                        {
                            "system": "http://snomed.info/sct",
                            "code": "419984006",
                            "display": "Inconclusive (qualifier value)"
                        }
                    ],
                    "text": "SARS-CoV-2-RNA nicht eindeutig"
                }
            },
            "request": {
                "method": "POST",
                "url": "Observation"
            }
        },
        {
            "resource": {
                "resourceType": "Condition",
                "id": "bb3355c4-f88e-4ed5-8966-acd16b2a12fc",
                "meta": {
                    "profile": [
                        "https://www.netzwerk-universitaetsmedizin.de/fhir/StructureDefinition/chronic-neurological-mental-diseases"
                    ]
                },
                "modifierExtension": [
                    {
                        "url": "https://www.netzwerk-universitaetsmedizin.de/fhir/StructureDefinition/uncertainty-of-presence",
                        "valueCodeableConcept": {
                            "coding": [
                                {
                                    "system": "http://snomed.info/sct",
                                    "code": "261665006",
                                    "display": "Unknown (qualifier value)"
                                }
                            ],
                            "text": "Presence of condition is unknown."
                        }
                    }
                ],
                "category": [
                    {
                        "coding": [
                            {
                                "system": "http://snomed.info/sct",
                                "code": "394591006",
                                "display": "Neurology"
                            },
                            {
                                "system": "http://snomed.info/sct",
                                "code": "394587001",
                                "display": "Psychiatry"
                            }
                        ]
                    }
                ],
                "code": {
                    "coding": [
                        {
                            "system": "http://snomed.info/sct",
                            "code": "24700007",
                            "display": "Multiple sclerosis"
                        }
                    ]
                },
                "subject": {
                    "reference": "Patient/95eb6353-ac9a-4d20-bba6-b3d8c5127370"
                },
                "recordedDate": "2020-10-06"
            },
            "request": {
                "method": "POST",
                "url": "Condition"
            }
        },
        {
            "resource": {
                "resourceType": "Condition",
                "id": "719c51ba-3692-40ce-a13f-82c89f5b930c",
                "meta": {
                    "profile": [
                        "https://www.netzwerk-universitaetsmedizin.de/fhir/StructureDefinition/chronic-liver-diseases"
                    ]
                },
                "clinicalStatus": {
                    "coding": [
                        {
                            "system": "http://terminology.hl7.org/CodeSystem/condition-clinical",
                            "code": "active",
                            "display": "Active"
                        }
                    ]
                },
                "verificationStatus": {
                    "coding": [
                        {
                            "system": "http://terminology.hl7.org/CodeSystem/condition-ver-status",
                            "code": "confirmed",
                            "display": "Confirmed"
                        },
                        {
                            "system": "http://snomed.info/sct",
                            "code": "410605003",
                            "display": "Confirmed present (qualifier value)"
                        }
                    ]
                },
                "category": [
                    {
                        "coding": [
                            {
                                "system": "http://snomed.info/sct",
                                "code": "408472002",
                                "display": "Hepatology"
                            }
                        ]
                    }
                ],
                "code": {
                    "coding": [
                        {
                            "system": "http://snomed.info/sct",
                            "code": "197321007",
                            "display": "Steatosis of liver"
                        }
                    ]
                },
                "subject": {
                    "reference": "Patient/95eb6353-ac9a-4d20-bba6-b3d8c5127370"
                },
                "recordedDate": "2020-10-06"
            },
            "request": {
                "method": "POST",
                "url": "Condition"
            }
        },
        {
            "resource": {
                "resourceType": "DiagnosticReport",
                "id": "a30f5c42-8b4d-4cac-8118-55e7d876a8e8",
                "meta": {
                    "profile": [
                        "https://www.netzwerk-universitaetsmedizin.de/fhir/StructureDefinition/diagnostic-report-radiology"
                    ]
                },
                "status": "final",
                "category": [
                    {
                        "coding": [
                            {
                                "system": "http://loinc.org",
                                "code": "18726-0",
                                "display": "Radiology studies (set)"
                            },
                            {
                                "system": "http://terminology.hl7.org/CodeSystem/v2-0074",
                                "code": "RAD",
                                "display": "Radiology"
                            }
                        ]
                    }
                ],
                "code": {
                    "coding": [
                        {
                            "system": "http://loinc.org",
                            "code": "18748-4",
                            "display": "Diagnostic imaging study"
                        }
                    ]
                },
                "subject": {
                    "reference": "Patient/95eb6353-ac9a-4d20-bba6-b3d8c5127370"
                },
                "effectiveDateTime": "2020-09-30",
                "conclusion": "Normalbefund",
                "conclusionCode": [
                    {
                        "coding": [
                            {
                                "system": "http://snomed.info/sct",
                                "code": "118247008:{363713009=17621005}",
                                "display": "|Radiologic finding (finding)|:|Has interpretation (attribute)|=|Normal (qualifier value)|"
                            }
                        ]
                    }
                ]
            },
            "request": {
                "method": "POST",
                "url": "DiagnosticReport"
            }
        },
        {
            "resource": {
                "resourceType": "Condition",
                "id": "3c5cf052-d894-4cc3-a12c-ba087d8e3083",
                "meta": {
                    "profile": [
                        "https://www.netzwerk-universitaetsmedizin.de/fhir/StructureDefinition/rheumatological-immunological-diseases"
                    ]
                },
                "clinicalStatus": {
                    "coding": [
                        {
                            "system": "http://terminology.hl7.org/CodeSystem/condition-clinical",
                            "code": "active",
                            "display": "Active"
                        }
                    ]
                },
                "verificationStatus": {
                    "coding": [
                        {
                            "system": "http://terminology.hl7.org/CodeSystem/condition-ver-status",
                            "code": "confirmed",
                            "display": "Confirmed"
                        },
                        {
                            "system": "http://snomed.info/sct",
                            "code": "410605003",
                            "display": "Confirmed present (qualifier value)"
                        }
                    ]
                },
                "category": [
                    {
                        "coding": [
                            {
                                "system": "http://snomed.info/sct",
                                "code": "394810000",
                                "display": "Rheumatology"
                            },
                            {
                                "system": "http://snomed.info/sct",
                                "code": "408480009",
                                "display": "Clinical immunology"
                            }
                        ]
                    }
                ],
                "code": {
                    "coding": [
                        {
                            "system": "http://snomed.info/sct",
                            "code": "396332003",
                            "display": "Rheumatism"
                        }
                    ]
                },
                "subject": {
                    "reference": "Patient/95eb6353-ac9a-4d20-bba6-b3d8c5127370"
                },
                "recordedDate": "2020-10-06"
            },
            "request": {
                "method": "POST",
                "url": "Condition"
            }
        },
        {
            "resource": {
                "resourceType": "Observation",
                "id": "220767b9-5760-40b8-8741-8772dae04c3f",
                "meta": {
                    "profile": [
                        "https://www.netzwerk-universitaetsmedizin.de/fhir/StructureDefinition/sars-cov-2-ab-pnl-ser-pl-ia"
                    ]
                },
                "identifier": [
                    {
                        "type": {
                            "coding": [
                                {
                                    "system": "http://terminology.hl7.org/CodeSystem/v2-0203",
                                    "code": "OBI"
                                }
                            ]
                        },
                        "system": "https://www.charite.de/fhir/CodeSystem/lab-identifiers",
                        "value": "94504-8_SARS-CoV-2-Ab-Panel",
                        "assigner": {
                            "reference": "Organization/Charit\u00e9"
                        }
                    }
                ],
                "status": "final",
                "category": [
                    {
                        "coding": [
                            {
                                "system": "http://loinc.org",
                                "code": "26436-6"
                            },
                            {
                                "system": "http://terminology.hl7.org/CodeSystem/observation-category",
                                "code": "laboratory"
                            }
                        ]
                    }
                ],
                "code": {
                    "coding": [
                        {
                            "system": "http://loinc.org",
                            "code": "94504-8",
                            "display": "SARS-CoV-2 (COVID-19) Ab panel - Serum or Plasma by Immunoassay"
                        }
                    ],
                    "text": "SARS-CoV-2 antibodies panel"
                },
                "subject": {
                    "reference": "Patient/95eb6353-ac9a-4d20-bba6-b3d8c5127370"
                },
                "effectiveDateTime": "2020-10-19T08:43:33+02:00",
                "hasMember": [
                    {
                        "reference": "Observation/22732de8-3eb6-477e-81d6-28fb906b3e4e"
                    },
                    {
                        "reference": "Observation/70ca7d00-0d8b-42bb-9508-a8fc76e5c7ad"
                    },
                    {
                        "reference": "Observation/7e746710-fad4-474b-8a28-422863f3a2b8"
                    },
                    {
                        "reference": "Observation/f35f17da-f642-402d-8cf4-ff70607713a7"
                    },
                    {
                        "reference": "Observation/7297b0fd-3be7-4b88-a63a-6ba651152c41"
                    },
                    {
                        "reference": "Observation/da1fa3fe-a8a3-44b6-94c6-3497269436ec"
                    },
                    {
                        "reference": "Observation/b5adbc53-a1ee-4a57-9ede-fae4b4462bfb"
                    },
                    {
                        "reference": "Observation/b08b1687-2ea1-4b14-9473-dd04389169ec"
                    }
                ]
            },
            "request": {
                "method": "POST",
                "url": "Observation"
            }
        },
        {
            "resource": {
                "resourceType": "Observation",
                "id": "9cd9ca09-3b1f-41eb-bd07-c8c78c236ab6",
                "meta": {
                    "profile": [
                        "https://www.netzwerk-universitaetsmedizin.de/fhir/StructureDefinition/interventional-clinical-trial-participation"
                    ]
                },
                "identifier": [
                    {
                        "type": {
                            "coding": [
                                {
                                    "system": "http://terminology.hl7.org/CodeSystem/v2-0203",
                                    "code": "OBI"
                                }
                            ]
                        },
                        "system": "https://www.charite.de/fhir/CodeSystem/observation-identifiers",
                        "value": "ecrf_03_InterventionalClinicalTrialsParticipation",
                        "assigner": {
                            "reference": "Organization/Charit\u00e9"
                        }
                    }
                ],
                "status": "final",
                "category": [
                    {
                        "coding": [
                            {
                                "system": "http://terminology.hl7.org/CodeSystem/observation-category",
                                "code": "survey"
                            }
                        ]
                    }
                ],
                "code": {
                    "coding": [
                        {
                            "system": "https://www.netzwerk-universitaetsmedizin.de/fhir/CodeSystem/ecrf-parameter-codes",
                            "code": "03",
                            "display": "Participation in interventional clinical trials"
                        }
                    ],
                    "text": "Has the patient participated in one or more interventional clinical trials?"
                },
                "subject": {
                    "reference": "Patient/95eb6353-ac9a-4d20-bba6-b3d8c5127370"
                },
                "effectiveDateTime": "2020-10-16T08:49:21+02:00",
                "valueCodeableConcept": {
                    "coding": [
                        {
                            "system": "http://snomed.info/sct",
                            "code": "373067005",
                            "display": "No (qualifier value)"
                        }
                    ],
                    "text": "Patient is not enrolled in other studies"
                }
            },
            "request": {
                "method": "POST",
                "url": "Observation"
            }
        },
        {
            "resource": {
                "resourceType": "Procedure",
                "id": "7d07f267-e38e-4a4d-bd4d-24c08e4290bf",
                "meta": {
                    "profile": [
                        "https://www.netzwerk-universitaetsmedizin.de/fhir/StructureDefinition/radiology-procedures"
                    ]
                },
                "status": "completed",
                "category": {
                    "coding": [
                        {
                            "system": "http://snomed.info/sct",
                            "code": "103693007",
                            "display": "Diagnostic procedure (procedure)"
                        }
                    ]
                },
                "code": {
                    "coding": [
                        {
                            "system": "http://snomed.info/sct",
                            "code": "16310003",
                            "display": "Diagnostic ultrasonography (procedure)"
                        },
                        {
                            "system": "http://dicom.nema.org/resources/ontology/DCM",
                            "code": "US",
                            "display": "Ultrasound"
                        }
                    ],
                    "text": "Ultrasound"
                },
                "subject": {
                    "reference": "Patient/95eb6353-ac9a-4d20-bba6-b3d8c5127370"
                },
                "performedDateTime": "2020-09-30",
                "bodySite": [
                    {
                        "coding": [
                            {
                                "system": "http://snomed.info/sct",
                                "code": "39607008",
                                "display": "Lung structure (body structure)"
                            }
                        ]
                    }
                ],
                "report": [
                    {
                        "reference": "DiagnosticReport/example"
                    }
                ]
            },
            "request": {
                "method": "POST",
                "url": "Procedure"
            }
        },
        {
            "resource": {
                "resourceType": "Observation",
                "id": "ce01e111-da00-438e-8584-0d14000a5388",
                "meta": {
                    "profile": [
                        "https://www.netzwerk-universitaetsmedizin.de/fhir/StructureDefinition/patient-in-icu"
                    ]
                },
                "status": "final",
                "category": [
                    {
                        "coding": [
                            {
                                "system": "http://terminology.hl7.org/CodeSystem/observation-category",
                                "code": "survey",
                                "display": "Survey"
                            }
                        ]
                    }
                ],
                "code": {
                    "coding": [
                        {
                            "system": "http://loinc.org",
                            "code": "95420-6",
                            "display": "Whether the patient was admitted to intensive care unit (ICU) for condition of interest"
                        }
                    ]
                },
                "subject": {
                    "reference": "Patient/95eb6353-ac9a-4d20-bba6-b3d8c5127370"
                },
                "effectiveDateTime": "2020-10-14",
                "valueCodeableConcept": {
                    "coding": [
                        {
                            "system": "http://snomed.info/sct",
                            "code": "261665006",
                            "display": "Unknown (qualifier value)"
                        }
                    ]
                }
            },
            "request": {
                "method": "POST",
                "url": "Observation"
            }
        },
        {
            "resource": {
                "resourceType": "Observation",
                "id": "14616b17-7235-4024-a9a1-562a39bf7b0d",
                "meta": {
                    "profile": [
                        "https://www.netzwerk-universitaetsmedizin.de/fhir/StructureDefinition/pregnancy-status"
                    ]
                },
                "identifier": [
                    {
                        "type": {
                            "coding": [
                                {
                                    "system": "http://terminology.hl7.org/CodeSystem/v2-0203",
                                    "code": "OBI"
                                }
                            ]
                        },
                        "system": "https://www.charite.de/fhir/CodeSystem/observation-identifiers",
                        "value": "82810-3_PregnancyDtatus",
                        "assigner": {
                            "reference": "Organization/Charit\u00e9"
                        }
                    }
                ],
                "status": "final",
                "category": [
                    {
                        "coding": [
                            {
                                "system": "http://terminology.hl7.org/CodeSystem/observation-category",
                                "code": "social-history"
                            }
                        ]
                    }
                ],
                "code": {
                    "coding": [
                        {
                            "system": "http://loinc.org",
                            "code": "82810-3",
                            "display": "Pregnancy status"
                        }
                    ],
                    "text": "Pregnancy status"
                },
                "subject": {
                    "reference": "Patient/95eb6353-ac9a-4d20-bba6-b3d8c5127370"
                },
                "effectiveDateTime": "2020-10-02",
                "valueCodeableConcept": {
                    "coding": [
                        {
                            "system": "http://loinc.org",
                            "code": "LA15173-0",
                            "display": "Pregnant"
                        },
                        {
                            "system": "http://snomed.info/sct",
                            "code": "77386006",
                            "display": "Pregnant (finding)"
                        }
                    ]
                }
            },
            "request": {
                "method": "POST",
                "url": "Observation"
            }
        },
        {
            "resource": {
                "resourceType": "Observation",
                "id": "80ac4908-3637-476d-a416-9ab7ed7474e6",
                "meta": {
                    "profile": [
                        "https://www.netzwerk-universitaetsmedizin.de/fhir/StructureDefinition/body-weight"
                    ]
                },
                "identifier": [
                    {
                        "type": {
                            "coding": [
                                {
                                    "system": "http://terminology.hl7.org/CodeSystem/v2-0203",
                                    "code": "OBI"
                                }
                            ]
                        },
                        "system": "https://www.charite.de/fhir/CodeSystem/observation-identifiers",
                        "value": "29463-7_BodyWeight",
                        "assigner": {
                            "reference": "Organization/Charit\u00e9"
                        }
                    }
                ],
                "status": "final",
                "category": [
                    {
                        "coding": [
                            {
                                "system": "http://terminology.hl7.org/CodeSystem/observation-category",
                                "code": "vital-signs"
                            }
                        ]
                    }
                ],
                "code": {
                    "coding": [
                        {
                            "system": "http://loinc.org",
                            "code": "29463-7",
                            "display": "Body weight"
                        },
                        {
                            "system": "http://snomed.info/sct",
                            "code": "27113001",
                            "display": "Body weight (observable entity)"
                        }
                    ],
                    "text": "Body weight"
                },
                "subject": {
                    "reference": "Patient/95eb6353-ac9a-4d20-bba6-b3d8c5127370"
                },
                "effectiveDateTime": "2020-10-02",
                "valueQuantity": {
                    "value": 84,
                    "unit": "kilogram",
                    "system": "http://unitsofmeasure.org",
                    "code": "kg"
                }
            },
            "request": {
                "method": "POST",
                "url": "Observation"
            }
        },
        {
            "resource": {
                "resourceType": "Procedure",
                "id": "4b25d237-886d-4aa7-945d-a70d903d8eea",
                "meta": {
                    "profile": [
                        "https://www.netzwerk-universitaetsmedizin.de/fhir/StructureDefinition/extracorporeal-membrane-oxygenation"
                    ]
                },
                "status": "completed",
                "category": {
                    "coding": [
                        {
                            "system": "http://snomed.info/sct",
                            "code": "277132007",
                            "display": "Therapeutic procedure (procedure)"
                        }
                    ]
                },
                "code": {
                    "coding": [
                        {
                            "system": "http://snomed.info/sct",
                            "code": "233573008",
                            "display": "Extracorporeal membrane oxygenation (procedure)"
                        }
                    ],
                    "text": "ECMO"
                },
                "subject": {
                    "reference": "Patient/95eb6353-ac9a-4d20-bba6-b3d8c5127370"
                },
                "_performedDateTime": {
                    "extension": [
                        {
                            "url": "http://hl7.org/fhir/StructureDefinition/data-absent-reason",
                            "valueCode": "unknown"
                        }
                    ]
                }
            },
            "request": {
                "method": "POST",
                "url": "Procedure"
            }
        },
        {
            "resource": {
                "resourceType": "Condition",
                "id": "653929f1-a493-44de-ace5-77f17d9aeace",
                "meta": {
                    "profile": [
                        "https://www.netzwerk-universitaetsmedizin.de/fhir/StructureDefinition/chronic-lung-diseases"
                    ]
                },
                "modifierExtension": [
                    {
                        "url": "https://www.netzwerk-universitaetsmedizin.de/fhir/StructureDefinition/uncertainty-of-presence",
                        "valueCodeableConcept": {
                            "coding": [
                                {
                                    "system": "http://snomed.info/sct",
                                    "code": "261665006",
                                    "display": "Unknown (qualifier value)"
                                }
                            ],
                            "text": "Presence of condition is unknown."
                        }
                    }
                ],
                "category": [
                    {
                        "coding": [
                            {
                                "system": "http://snomed.info/sct",
                                "code": "418112009",
                                "display": "Pulmonary medicine"
                            }
                        ]
                    }
                ],
                "code": {
                    "coding": [
                        {
                            "system": "http://snomed.info/sct",
                            "code": "190966007",
                            "display": "Extreme obesity with alveolar hypoventilation"
                        }
                    ]
                },
                "subject": {
                    "reference": "Patient/95eb6353-ac9a-4d20-bba6-b3d8c5127370"
                },
                "recordedDate": "2020-10-06"
            },
            "request": {
                "method": "POST",
                "url": "Condition"
            }
        },
        {
            "resource": {
                "resourceType": "Observation",
                "id": "example-observation-bladder-temperature",
                "meta": {
                    "profile": [
                        "https://www.netzwerk-universitaetsmedizin.de/fhir/StructureDefinition/body-temperature"
                    ]
                },
                "identifier": [
                    {
                        "type": {
                            "coding": [
                                {
                                    "system": "http://terminology.hl7.org/CodeSystem/v2-0203",
                                    "code": "OBI"
                                }
                            ]
                        },
                        "system": "https://www.charite.de/fhir/CodeSystem/observation-identifiers",
                        "value": "8310-5_BodyTemperature",
                        "assigner": {
                            "reference": "Organization/Charit\u00e9"
                        }
                    }
                ],
                "status": "final",
                "category": [
                    {
                        "coding": [
                            {
                                "system": "http://terminology.hl7.org/CodeSystem/observation-category",
                                "code": "vital-signs"
                            }
                        ]
                    }
                ],
                "code": {
                    "coding": [
                        {
                            "system": "http://loinc.org",
                            "code": "8310-5",
                            "display": "Body temperature"
                        },
                        {
                            "system": "http://loinc.org",
                            "code": "8334-5",
                            "display": "Body temperature - Urinary bladder"
                        },
                        {
                            "system": "http://snomed.info/sct",
                            "code": "386725007",
                            "display": "Body temperature (observable entity)"
                        },
                        {
                            "system": "http://snomed.info/sct",
                            "code": "698832009",
                            "display": "Core body temperature measured at urinary bladder (observable entity)"
                        }
                    ],
                    "text": "Body temperature"
                },
                "subject": {
                    "reference": "Patient/95eb6353-ac9a-4d20-bba6-b3d8c5127370"
                },
                "effectiveDateTime": "2021-04-14",
                "valueQuantity": {
                    "value": 36.8,
                    "unit": "\u00b0C",
                    "system": "http://unitsofmeasure.org",
                    "code": "Cel"
                },
                "bodySite": {
                    "coding": [
                        {
                            "system": "http://snomed.info/sct",
                            "code": "89837001",
                            "display": "Urinary bladder structure (body structure)"
                        }
                    ]
                }
            },
            "request": {
                "method": "POST",
                "url": "Observation"
            }
        },
        {
            "resource": {
                "resourceType": "Observation",
                "id": "b69cf35d-6d43-4881-9189-d5ea00dcf573",
                "meta": {
                    "profile": [
                        "https://www.netzwerk-universitaetsmedizin.de/fhir/StructureDefinition/known-exposure"
                    ]
                },
                "identifier": [
                    {
                        "type": {
                            "coding": [
                                {
                                    "system": "http://terminology.hl7.org/CodeSystem/v2-0203",
                                    "code": "OBI"
                                }
                            ]
                        },
                        "system": "https://www.charite.de/fhir/CodeSystem/observation-identifiers",
                        "value": "88636-6_KnownExposure",
                        "assigner": {
                            "reference": "Organization/Charit\u00e9"
                        }
                    }
                ],
                "status": "final",
                "category": [
                    {
                        "coding": [
                            {
                                "system": "http://terminology.hl7.org/CodeSystem/observation-category",
                                "code": "social-history"
                            }
                        ]
                    }
                ],
                "code": {
                    "coding": [
                        {
                            "system": "http://loinc.org",
                            "code": "88636-6",
                            "display": "Known exposure [Identifier]"
                        }
                    ],
                    "text": "Known exposure"
                },
                "subject": {
                    "reference": "Patient/95eb6353-ac9a-4d20-bba6-b3d8c5127370"
                },
                "effectiveDateTime": "2020-10-04",
                "valueCodeableConcept": {
                    "coding": [
                        {
                            "system": "http://snomed.info/sct",
                            "code": "373067005",
                            "display": "No (qualifier value)"
                        }
                    ]
                }
            },
            "request": {
                "method": "POST",
                "url": "Observation"
            }
        },
        {
            "resource": {
                "resourceType": "Condition",
                "id": "c8acca90-00ba-4ff4-9dcd-0976a665ef99",
                "meta": {
                    "profile": [
                        "https://www.netzwerk-universitaetsmedizin.de/fhir/StructureDefinition/human-immunodeficiency-virus-infection"
                    ]
                },
                "modifierExtension": [
                    {
                        "url": "https://www.netzwerk-universitaetsmedizin.de/fhir/StructureDefinition/uncertainty-of-presence",
                        "valueCodeableConcept": {
                            "coding": [
                                {
                                    "system": "http://snomed.info/sct",
                                    "code": "261665006",
                                    "display": "Unknown (qualifier value)"
                                }
                            ],
                            "text": "Presence of condition is unknown."
                        }
                    }
                ],
                "category": [
                    {
                        "coding": [
                            {
                                "system": "http://snomed.info/sct",
                                "code": "394807007",
                                "display": "Infectious diseases (specialty)"
                            }
                        ]
                    }
                ],
                "code": {
                    "coding": [
                        {
                            "system": "http://snomed.info/sct",
                            "code": "86406008",
                            "display": "Human immunodeficiency virus infection"
                        }
                    ]
                },
                "subject": {
                    "reference": "Patient/95eb6353-ac9a-4d20-bba6-b3d8c5127370"
                },
                "recordedDate": "2020-10-06"
            },
            "request": {
                "method": "POST",
                "url": "Condition"
            }
        },
        {
            "resource": {
                "resourceType": "MedicationStatement",
                "id": "f6ba1b3a-5416-49e5-81b5-6d95e1eac1b9",
                "meta": {
                    "profile": [
                        "https://www.netzwerk-universitaetsmedizin.de/fhir/StructureDefinition/pharmacological-therapy-anticoagulants"
                    ]
                },
                "status": "active",
                "medicationCodeableConcept": {
                    "coding": [
                        {
                            "system": "http://snomed.info/sct",
                            "code": "81839001",
                            "display": "Medicinal product acting as anticoagulant agent (product)"
                        },
                        {
                            "system": "http://fhir.de/CodeSystem/bfarm/atc",
                            "code": "B01AB01",
                            "display": "Heparin"
                        }
                    ],
                    "text": "Atazanavir"
                },
                "subject": {
                    "reference": "Patient/95eb6353-ac9a-4d20-bba6-b3d8c5127370"
                },
                "effectiveDateTime": "2020-10-19T08:43:33+02:00",
                "reasonCode": [
                    {
                        "coding": [
                            {
                                "system": "http://snomed.info/sct",
                                "code": "360271000",
                                "display": "Prophylaxis - procedure intent (qualifier value)"
                            }
                        ]
                    }
                ]
            },
            "request": {
                "method": "POST",
                "url": "MedicationStatement"
            }
        },
        {
            "resource": {
                "resourceType": "Patient",
                "id": "95eb6353-ac9a-4d20-bba6-b3d8c5127370",
                "meta": {
                    "profile": [
                        "https://www.netzwerk-universitaetsmedizin.de/fhir/StructureDefinition/Patient"
                    ]
                },
                "text": {
                    "status": "generated",
                    "div": "<div xmlns=\"http://www.w3.org/1999/xhtml\"><table class=\"hapiPropertyTable\"><tbody><tr><td>Identifier</td><td>codex_6348Q7</td></tr><tr><td>Date of birth</td><td><span>30 September 1953</span></td></tr></tbody></table></div>"
                },
                "extension": [
                    {
                        "url": "https://www.netzwerk-universitaetsmedizin.de/fhir/StructureDefinition/ethnic-group",
                        "valueCoding": {
                            "system": "http://snomed.info/sct",
                            "code": "26242008",
                            "display": "Mixed (qualifier value)"
                        }
                    },
                    {
                        "url": "https://www.netzwerk-universitaetsmedizin.de/fhir/StructureDefinition/age",
                        "extension": [
                            {
                                "url": "dateTimeOfDocumentation",
                                "valueDateTime": "2020-10-01"
                            },
                            {
                                "url": "age",
                                "valueAge": {
                                    "value": 67,
                                    "unit": "years",
                                    "system": "http://unitsofmeasure.org",
                                    "code": "a"
                                }
                            }
                        ]
                    }
                ],
                "identifier": [
                    {
                        "type": {
                            "coding": [
                                {
                                    "system": "http://terminology.hl7.org/CodeSystem/v2-0203",
                                    "code": "ANON"
                                }
                            ]
                        },
                        "system": "http://www.netzwerk-universitaetsmedizin.de/sid/crr-pseudonym",
                        "value": "73471933"
                    }
                ],
                "birthDate": "1953-09-30"
            },
            "request": {
                "method": "PUT",
                "url": "Patient/95eb6353-ac9a-4d20-bba6-b3d8c5127370"
            }
        },
        {
            "resource": {
                "resourceType": "Condition",
                "id": "526cafdc-3249-4ea7-b058-a0c82c81bda9",
                "meta": {
                    "profile": [
                        "https://www.netzwerk-universitaetsmedizin.de/fhir/StructureDefinition/gastrointestinal-ulcers"
                    ]
                },
                "verificationStatus": {
                    "coding": [
                        {
                            "system": "http://terminology.hl7.org/CodeSystem/condition-ver-status",
                            "code": "refuted",
                            "display": "Refuted"
                        },
                        {
                            "system": "http://snomed.info/sct",
                            "code": "410594000",
                            "display": "Definitely NOT present (qualifier value)"
                        }
                    ]
                },
                "category": [
                    {
                        "coding": [
                            {
                                "system": "http://snomed.info/sct",
                                "code": "394584008",
                                "display": "Gastroenterology"
                            }
                        ]
                    }
                ],
                "code": {
                    "coding": [
                        {
                            "system": "http://snomed.info/sct",
                            "code": "40845000",
                            "display": "Gastrointestinal ulcer"
                        }
                    ]
                },
                "subject": {
                    "reference": "Patient/95eb6353-ac9a-4d20-bba6-b3d8c5127370"
                },
                "recordedDate": "2020-10-06"
            },
            "request": {
                "method": "POST",
                "url": "Condition"
            }
        },
        {
            "resource": {
                "resourceType": "Condition",
                "id": "52058908-033b-4ea7-a4f8-6c00bcf1e0b1",
                "meta": {
                    "profile": [
                        "https://www.netzwerk-universitaetsmedizin.de/fhir/StructureDefinition/organ-recipient"
                    ]
                },
                "modifierExtension": [
                    {
                        "url": "https://www.netzwerk-universitaetsmedizin.de/fhir/StructureDefinition/uncertainty-of-presence",
                        "valueCodeableConcept": {
                            "coding": [
                                {
                                    "system": "http://snomed.info/sct",
                                    "code": "261665006",
                                    "display": "Unknown (qualifier value)"
                                }
                            ],
                            "text": "Presence of condition is unknown."
                        }
                    }
                ],
                "category": [
                    {
                        "coding": [
                            {
                                "system": "http://snomed.info/sct",
                                "code": "788415003",
                                "display": "Transplant medicine"
                            }
                        ]
                    }
                ],
                "code": {
                    "coding": [
                        {
                            "system": "http://snomed.info/sct",
                            "code": "161663000",
                            "display": "History of being a tissue or organ recipient"
                        }
                    ]
                },
                "subject": {
                    "reference": "Patient/95eb6353-ac9a-4d20-bba6-b3d8c5127370"
                },
                "recordedDate": "2020-10-05"
            },
            "request": {
                "method": "POST",
                "url": "Condition"
            }
        },
        {
            "resource": {
                "resourceType": "Observation",
                "id": "7297b0fd-3be7-4b88-a63a-6ba651152c41",
                "meta": {
                    "profile": [
                        "https://www.netzwerk-universitaetsmedizin.de/fhir/StructureDefinition/sars-cov-2-igg-ser-pl-ia-acnc"
                    ]
                },
                "identifier": [
                    {
                        "type": {
                            "coding": [
                                {
                                    "system": "http://terminology.hl7.org/CodeSystem/v2-0203",
                                    "code": "OBI"
                                }
                            ]
                        },
                        "system": "https://www.charite.de/fhir/CodeSystem/lab-identifiers",
                        "value": "94505-5_SARS-CoV-2-IgG-Qn",
                        "assigner": {
                            "reference": "Organization/Charit\u00e9"
                        }
                    }
                ],
                "status": "final",
                "category": [
                    {
                        "coding": [
                            {
                                "system": "http://loinc.org",
                                "code": "26436-6"
                            },
                            {
                                "system": "http://terminology.hl7.org/CodeSystem/observation-category",
                                "code": "laboratory"
                            }
                        ]
                    }
                ],
                "code": {
                    "coding": [
                        {
                            "system": "http://loinc.org",
                            "code": "94505-5",
                            "display": "SARS-CoV-2 (COVID-19) IgG Ab [Units/volume] in Serum or Plasma by Immunoassay"
                        }
                    ],
                    "text": "SARS-CoV-2 IgG antibodies quantitative"
                },
                "subject": {
                    "reference": "Patient/95eb6353-ac9a-4d20-bba6-b3d8c5127370"
                },
                "effectiveDateTime": "2020-10-19T08:43:33+02:00",
                "valueQuantity": {
                    "value": 20,
                    "unit": "[arb'U]/mL",
                    "system": "http://unitsofmeasure.org",
                    "code": "[arb'U]/mL"
                }
            },
            "request": {
                "method": "POST",
                "url": "Observation"
            }
        },
        {
            "resource": {
                "resourceType": "Observation",
                "id": "ac8b697d-7088-4fbe-9ece-51df2d3f1e04",
                "meta": {
                    "profile": [
                        "https://www.netzwerk-universitaetsmedizin.de/fhir/StructureDefinition/pH"
                    ]
                },
                "identifier": [
                    {
                        "type": {
                            "coding": [
                                {
                                    "system": "http://terminology.hl7.org/CodeSystem/v2-0203",
                                    "code": "OBI"
                                }
                            ]
                        },
                        "system": "https://www.charite.de/fhir/CodeSystem/lab-identifiers",
                        "value": "2744-1_pH",
                        "assigner": {
                            "reference": "Organization/Charit\u00e9"
                        }
                    }
                ],
                "status": "final",
                "category": [
                    {
                        "coding": [
                            {
                                "system": "http://loinc.org",
                                "code": "26436-6"
                            },
                            {
                                "system": "http://terminology.hl7.org/CodeSystem/observation-category",
                                "code": "laboratory"
                            },
                            {
                                "system": "http://loinc.org",
                                "code": "18767-4"
                            }
                        ]
                    }
                ],
                "code": {
                    "coding": [
                        {
                            "system": "http://loinc.org",
                            "code": "2744-1",
                            "display": "pH of Arterial blood"
                        }
                    ],
                    "text": "pH of Arterial blood"
                },
                "subject": {
                    "reference": "Patient/95eb6353-ac9a-4d20-bba6-b3d8c5127370"
                },
                "effectiveDateTime": "2020-09-21",
                "valueQuantity": {
                    "value": 7.4,
                    "unit": "pH",
                    "system": "http://unitsofmeasure.org",
                    "code": "[pH]"
                }
            },
            "request": {
                "method": "POST",
                "url": "Observation"
            }
        },
        {
            "resource": {
                "resourceType": "Observation",
                "id": "6a78560b-2f7c-4af5-a7bc-3c7d62ca8458",
                "meta": {
                    "profile": [
                        "https://www.netzwerk-universitaetsmedizin.de/fhir/StructureDefinition/carbon-dioxide-partial-pressure"
                    ]
                },
                "identifier": [
                    {
                        "type": {
                            "coding": [
                                {
                                    "system": "http://terminology.hl7.org/CodeSystem/v2-0203",
                                    "code": "OBI"
                                }
                            ]
                        },
                        "system": "https://www.charite.de/fhir/CodeSystem/lab-identifiers",
                        "value": "2019-8_paCO2",
                        "assigner": {
                            "reference": "Organization/Charit\u00e9"
                        }
                    }
                ],
                "status": "final",
                "category": [
                    {
                        "coding": [
                            {
                                "system": "http://loinc.org",
                                "code": "26436-6"
                            },
                            {
                                "system": "http://terminology.hl7.org/CodeSystem/observation-category",
                                "code": "laboratory"
                            },
                            {
                                "system": "http://loinc.org",
                                "code": "18767-4"
                            }
                        ]
                    }
                ],
                "code": {
                    "coding": [
                        {
                            "system": "http://loinc.org",
                            "code": "2019-8",
                            "display": "Carbon dioxide [Partial pressure] in Arterial blood"
                        }
                    ],
                    "text": "Carbon dioxide [Partial pressure] in Arterial blood"
                },
                "subject": {
                    "reference": "Patient/95eb6353-ac9a-4d20-bba6-b3d8c5127370"
                },
                "effectiveDateTime": "2020-09-21",
                "valueQuantity": {
                    "value": 44,
                    "unit": "mmHg",
                    "system": "http://unitsofmeasure.org",
                    "code": "mm[Hg]"
                }
            },
            "request": {
                "method": "POST",
                "url": "Observation"
            }
        },
        {
            "resource": {
                "resourceType": "Observation",
                "id": "c9f96dd3-a77a-4aa9-9b12-43cd1972d9a4",
                "meta": {
                    "profile": [
                        "https://www.netzwerk-universitaetsmedizin.de/fhir/StructureDefinition/inhaled-oxygen-concentration"
                    ]
                },
                "identifier": [
                    {
                        "type": {
                            "coding": [
                                {
                                    "system": "http://terminology.hl7.org/CodeSystem/v2-0203",
                                    "code": "OBI"
                                }
                            ]
                        },
                        "system": "https://www.charite.de/fhir/CodeSystem/lab-identifiers",
                        "value": "3150-0_FiO2",
                        "assigner": {
                            "reference": "Organization/Charit\u00e9"
                        }
                    }
                ],
                "status": "final",
                "category": [
                    {
                        "coding": [
                            {
                                "system": "http://loinc.org",
                                "code": "26436-6"
                            },
                            {
                                "system": "http://terminology.hl7.org/CodeSystem/observation-category",
                                "code": "laboratory"
                            },
                            {
                                "system": "http://loinc.org",
                                "code": "18767-4"
                            }
                        ]
                    }
                ],
                "code": {
                    "coding": [
                        {
                            "system": "http://loinc.org",
                            "code": "3150-0",
                            "display": "Inhaled oxygen concentration"
                        }
                    ],
                    "text": "Inhaled oxygen concentration"
                },
                "subject": {
                    "reference": "Patient/95eb6353-ac9a-4d20-bba6-b3d8c5127370"
                },
                "effectiveDateTime": "2020-09-21",
                "valueQuantity": {
                    "value": 21,
                    "unit": "%",
                    "system": "http://unitsofmeasure.org",
                    "code": "%"
                }
            },
            "request": {
                "method": "POST",
                "url": "Observation"
            }
        },
        {
            "resource": {
                "resourceType": "Observation",
                "id": "c8079220-594c-42dc-8cea-7a52a6833c2c",
                "meta": {
                    "profile": [
                        "https://www.netzwerk-universitaetsmedizin.de/fhir/StructureDefinition/heart-rate"
                    ]
                },
                "identifier": [
                    {
                        "type": {
                            "coding": [
                                {
                                    "system": "http://terminology.hl7.org/CodeSystem/v2-0203",
                                    "code": "OBI"
                                }
                            ]
                        },
                        "system": "https://www.charite.de/fhir/CodeSystem/observation-identifiers",
                        "value": "8867-4_HeartRate",
                        "assigner": {
                            "reference": "Organization/Charit\u00e9"
                        }
                    }
                ],
                "status": "final",
                "category": [
                    {
                        "coding": [
                            {
                                "system": "http://terminology.hl7.org/CodeSystem/observation-category",
                                "code": "vital-signs"
                            }
                        ]
                    }
                ],
                "code": {
                    "coding": [
                        {
                            "system": "http://loinc.org",
                            "code": "8867-4",
                            "display": "Heart rate"
                        },
                        {
                            "system": "http://snomed.info/sct",
                            "code": "364075005",
                            "display": "Heart rate (observable entity)"
                        }
                    ],
                    "text": "Heart rate"
                },
                "subject": {
                    "reference": "Patient/95eb6353-ac9a-4d20-bba6-b3d8c5127370"
                },
                "effectiveDateTime": "2020-09-25",
                "valueQuantity": {
                    "value": 81,
                    "unit": "per minute",
                    "system": "http://unitsofmeasure.org",
                    "code": "/min"
                }
            },
            "request": {
                "method": "POST",
                "url": "Observation"
            }
        },
        {
            "resource": {
                "resourceType": "Condition",
                "id": "018ed637-c0b3-4b6d-8b8f-e8686949cc7f",
                "meta": {
                    "profile": [
                        "https://www.netzwerk-universitaetsmedizin.de/fhir/StructureDefinition/diagnosis-covid-19"
                    ]
                },
                "clinicalStatus": {
                    "coding": [
                        {
                            "system": "http://terminology.hl7.org/CodeSystem/condition-clinical",
                            "code": "active",
                            "display": "Active"
                        }
                    ]
                },
                "verificationStatus": {
                    "coding": [
                        {
                            "system": "http://terminology.hl7.org/CodeSystem/condition-ver-status",
                            "code": "confirmed",
                            "display": "Confirmed"
                        },
                        {
                            "system": "http://snomed.info/sct",
                            "code": "410605003",
                            "display": "Confirmed present (qualifier value)"
                        }
                    ]
                },
                "category": [
                    {
                        "coding": [
                            {
                                "system": "http://snomed.info/sct",
                                "code": "394807007",
                                "display": "Infectious diseases (specialty) (qualifier value)"
                            }
                        ]
                    }
                ],
                "code": {
                    "coding": [
                        {
                            "system": "http://snomed.info/sct",
                            "code": "840539006",
                            "display": "Disease caused by Severe acute respiratory syndrome coronavirus 2 (disorder)"
                        }
                    ]
                },
                "subject": {
                    "reference": "Patient/95eb6353-ac9a-4d20-bba6-b3d8c5127370"
                },
                "recordedDate": "2020-10-23T12:48:23+02:00",
                "stage": [
                    {
                        "summary": {
                            "coding": [
                                {
                                    "system": "http://snomed.info/sct",
                                    "code": "24484000",
                                    "display": "Severe (severity modifier) (qualifier value)"
                                }
                            ],
                            "text": "Critical phase"
                        },
                        "type": {
                            "coding": [
                                {
                                    "system": "http://loinc.org",
                                    "code": "88859-4",
                                    "display": "Disease stage score for risk calculation"
                                }
                            ]
                        }
                    }
                ]
            },
            "request": {
                "method": "POST",
                "url": "Condition"
            }
        },
        {
            "resource": {
                "resourceType": "Observation",
                "id": "7e746710-fad4-474b-8a28-422863f3a2b8",
                "meta": {
                    "profile": [
                        "https://www.netzwerk-universitaetsmedizin.de/fhir/StructureDefinition/sars-cov-2-iga-ser-pl-ia-acnc"
                    ]
                },
                "identifier": [
                    {
                        "type": {
                            "coding": [
                                {
                                    "system": "http://terminology.hl7.org/CodeSystem/v2-0203",
                                    "code": "OBI"
                                }
                            ]
                        },
                        "system": "https://www.charite.de/fhir/CodeSystem/lab-identifiers",
                        "value": "94720-0_SARS-CoV-2-IgA-Qn",
                        "assigner": {
                            "reference": "Organization/Charit\u00e9"
                        }
                    }
                ],
                "status": "final",
                "category": [
                    {
                        "coding": [
                            {
                                "system": "http://loinc.org",
                                "code": "26436-6"
                            },
                            {
                                "system": "http://terminology.hl7.org/CodeSystem/observation-category",
                                "code": "laboratory"
                            }
                        ]
                    }
                ],
                "code": {
                    "coding": [
                        {
                            "system": "http://loinc.org",
                            "code": "94720-0",
                            "display": "SARS-CoV-2 (COVID-19) IgA Ab [Units/volume] in Serum or Plasma by Immunoassay"
                        }
                    ],
                    "text": "SARS-CoV-2 IgA antibodies quantitative"
                },
                "subject": {
                    "reference": "Patient/95eb6353-ac9a-4d20-bba6-b3d8c5127370"
                },
                "effectiveDateTime": "2020-10-19T08:43:33+02:00",
                "valueQuantity": {
                    "value": 0.5,
                    "unit": "[IU]/mL",
                    "system": "http://unitsofmeasure.org",
                    "code": "[IU]/mL"
                }
            },
            "request": {
                "method": "POST",
                "url": "Observation"
            }
        },
        {
            "resource": {
                "resourceType": "Observation",
                "id": "e39a18a6-63d7-4117-a38e-1f29be15f6fa",
                "meta": {
                    "profile": [
                        "https://www.netzwerk-universitaetsmedizin.de/fhir/StructureDefinition/oxygen-partial-pressure"
                    ]
                },
                "identifier": [
                    {
                        "type": {
                            "coding": [
                                {
                                    "system": "http://terminology.hl7.org/CodeSystem/v2-0203",
                                    "code": "OBI"
                                }
                            ]
                        },
                        "system": "https://www.charite.de/fhir/CodeSystem/lab-identifiers",
                        "value": "2703-7_paO2",
                        "assigner": {
                            "reference": "Organization/Charit\u00e9"
                        }
                    }
                ],
                "status": "final",
                "category": [
                    {
                        "coding": [
                            {
                                "system": "http://loinc.org",
                                "code": "26436-6"
                            },
                            {
                                "system": "http://terminology.hl7.org/CodeSystem/observation-category",
                                "code": "laboratory"
                            },
                            {
                                "system": "http://loinc.org",
                                "code": "18767-4"
                            }
                        ]
                    }
                ],
                "code": {
                    "coding": [
                        {
                            "system": "http://loinc.org",
                            "code": "2703-7",
                            "display": "Oxygen [Partial pressure] in Arterial blood"
                        }
                    ],
                    "text": "Oxygen [Partial pressure] in Arterial blood"
                },
                "subject": {
                    "reference": "Patient/95eb6353-ac9a-4d20-bba6-b3d8c5127370"
                },
                "effectiveDateTime": "2020-09-21",
                "valueQuantity": {
                    "value": 67,
                    "unit": "mmHg",
                    "system": "http://unitsofmeasure.org",
                    "code": "mm[Hg]"
                }
            },
            "request": {
                "method": "POST",
                "url": "Observation"
            }
        },
        {
            "resource": {
                "resourceType": "Observation",
                "id": "b5adbc53-a1ee-4a57-9ede-fae4b4462bfb",
                "meta": {
                    "profile": [
                        "https://www.netzwerk-universitaetsmedizin.de/fhir/StructureDefinition/sars-cov-2-igm-ser-pl-ia-acnc"
                    ]
                },
                "identifier": [
                    {
                        "type": {
                            "coding": [
                                {
                                    "system": "http://terminology.hl7.org/CodeSystem/v2-0203",
                                    "code": "OBI"
                                }
                            ]
                        },
                        "system": "https://www.charite.de/fhir/CodeSystem/lab-identifiers",
                        "value": "94505-5_SARS-CoV-2-IgM-Qn",
                        "assigner": {
                            "reference": "Organization/Charit\u00e9"
                        }
                    }
                ],
                "status": "final",
                "category": [
                    {
                        "coding": [
                            {
                                "system": "http://loinc.org",
                                "code": "26436-6"
                            },
                            {
                                "system": "http://terminology.hl7.org/CodeSystem/observation-category",
                                "code": "laboratory"
                            }
                        ]
                    }
                ],
                "code": {
                    "coding": [
                        {
                            "system": "http://loinc.org",
                            "code": "94506-3",
                            "display": "SARS-CoV-2 (COVID-19) IgM Ab [Units/volume] in Serum or Plasma by Immunoassay"
                        }
                    ],
                    "text": "SARS-CoV-2 IgM antibodies quantitative"
                },
                "subject": {
                    "reference": "Patient/95eb6353-ac9a-4d20-bba6-b3d8c5127370"
                },
                "effectiveDateTime": "2020-10-19T08:43:33+02:00",
                "valueQuantity": {
                    "value": 219.5,
                    "unit": "[arb'U]/mL",
                    "system": "http://unitsofmeasure.org",
                    "code": "[arb'U]/mL"
                }
            },
            "request": {
                "method": "POST",
                "url": "Observation"
            }
        }
    ]
}
