{
    "resourceType": "Bundle",
    "id": "7564e850-fc32-4368-bbad-d30c656d3dca",
    "meta": {
        "profile": [
            "https://www.netzwerk-universitaetsmedizin.de/fhir/StructureDefinition/gecco-bundle"
        ]
    },
    "type": "transaction",
    "timestamp": "2022-07-16T19:02:54Z",
    "entry": [
        {
            "resource": {
                "resourceType": "Observation",
                "id": "da1fa3fe-a8a3-44b6-94c6-3497269436ec",
                "meta": {
                    "profile": [
                        "https://www.netzwerk-universitaetsmedizin.de/fhir/StructureDefinition/sars-cov-2-igg-ser-pl-ql-ia"
                    ]
                },
                "identifier": [
                    {
                        "type": {
                            "coding": [
                                {
                                    "system": "http://terminology.hl7.org/CodeSystem/v2-0203",
                                    "code": "OBI"
                                }
                            ]
                        },
                        "system": "https://www.charite.de/fhir/CodeSystem/lab-identifiers",
                        "value": "94563-4_SARS-CoV-2-IgG-Ql",
                        "assigner": {
                            "reference": "Organization/Charit\u00e9"
                        }
                    }
                ],
                "status": "final",
                "category": [
                    {
                        "coding": [
                            {
                                "system": "http://loinc.org",
                                "code": "26436-6"
                            },
                            {
                                "system": "http://terminology.hl7.org/CodeSystem/observation-category",
                                "code": "laboratory"
                            }
                        ]
                    }
                ],
                "code": {
                    "coding": [
                        {
                            "system": "http://loinc.org",
                            "code": "94563-4",
                            "display": "SARS-CoV-2 (COVID-19) IgG Ab [Presence] in Serum or Plasma by Immunoassay"
                        }
                    ],
                    "text": "SARS-CoV-2 IgG antibodies qualitative"
                },
                "subject": {
                    "reference": "Patient/ef25d8db-ac93-47bb-b016-426f5b2c85b1"
                },
                "effectiveDateTime": "2020-10-19T08:43:33+02:00",
                "valueCodeableConcept": {
                    "coding": [
                        {
                            "system": "http://snomed.info/sct",
                            "code": "260373001",
                            "display": "Detected (qualifier value)"
                        }
                    ]
                }
            },
            "request": {
                "method": "POST",
                "url": "Observation"
            }
        },
        {
            "resource": {
                "resourceType": "Condition",
                "id": "6521ac90-e42c-41dc-a2b4-1560549ce500",
                "meta": {
                    "profile": [
                        "https://www.netzwerk-universitaetsmedizin.de/fhir/StructureDefinition/chronic-neurological-mental-diseases"
                    ]
                },
                "modifierExtension": [
                    {
                        "url": "https://www.netzwerk-universitaetsmedizin.de/fhir/StructureDefinition/uncertainty-of-presence",
                        "valueCodeableConcept": {
                            "coding": [
                                {
                                    "system": "http://snomed.info/sct",
                                    "code": "261665006",
                                    "display": "Unknown (qualifier value)"
                                }
                            ],
                            "text": "Presence of condition is unknown."
                        }
                    }
                ],
                "category": [
                    {
                        "coding": [
                            {
                                "system": "http://snomed.info/sct",
                                "code": "394591006",
                                "display": "Neurology"
                            },
                            {
                                "system": "http://snomed.info/sct",
                                "code": "394587001",
                                "display": "Psychiatry"
                            }
                        ]
                    }
                ],
                "code": {
                    "coding": [
                        {
                            "system": "http://snomed.info/sct",
                            "code": "84757009",
                            "display": "Epilepsy"
                        }
                    ]
                },
                "subject": {
                    "reference": "Patient/ef25d8db-ac93-47bb-b016-426f5b2c85b1"
                },
                "recordedDate": "2020-10-06"
            },
            "request": {
                "method": "POST",
                "url": "Condition"
            }
        },
        {
            "resource": {
                "resourceType": "Procedure",
                "id": "fa37a39e-4022-4428-bcf7-c75310858cd3",
                "meta": {
                    "profile": [
                        "https://www.netzwerk-universitaetsmedizin.de/fhir/StructureDefinition/dialysis"
                    ]
                },
                "status": "unknown",
                "category": {
                    "coding": [
                        {
                            "system": "http://snomed.info/sct",
                            "code": "277132007",
                            "display": "Therapeutic procedure (procedure)"
                        }
                    ]
                },
                "code": {
                    "coding": [
                        {
                            "system": "http://snomed.info/sct",
                            "code": "108241001",
                            "display": "Dialysis procedure (procedure)"
                        }
                    ],
                    "text": "Dialysis"
                },
                "subject": {
                    "reference": "Patient/ef25d8db-ac93-47bb-b016-426f5b2c85b1"
                },
                "_performedDateTime": {
                    "extension": [
                        {
                            "url": "http://hl7.org/fhir/StructureDefinition/data-absent-reason",
                            "valueCode": "unknown"
                        }
                    ]
                }
            },
            "request": {
                "method": "POST",
                "url": "Procedure"
            }
        },
        {
            "resource": {
                "resourceType": "Observation",
                "id": "3925fe1b-1b94-4132-bb32-7b4bc34b2a1e",
                "meta": {
                    "profile": [
                        "https://www.netzwerk-universitaetsmedizin.de/fhir/StructureDefinition/sars-cov-2-rt-pcr"
                    ]
                },
                "identifier": [
                    {
                        "type": {
                            "coding": [
                                {
                                    "system": "http://terminology.hl7.org/CodeSystem/v2-0203",
                                    "code": "OBI"
                                }
                            ]
                        },
                        "system": "https://www.charite.de/fhir/CodeSystem/lab-identifiers",
                        "value": "94500-6_SARS-CoV-2-RNA-Presence-in-Respiratory-specimen",
                        "assigner": {
                            "reference": "Organization/Charit\u00e9"
                        }
                    }
                ],
                "status": "final",
                "category": [
                    {
                        "coding": [
                            {
                                "system": "http://loinc.org",
                                "code": "26436-6"
                            },
                            {
                                "system": "http://terminology.hl7.org/CodeSystem/observation-category",
                                "code": "laboratory"
                            }
                        ]
                    }
                ],
                "code": {
                    "coding": [
                        {
                            "system": "http://loinc.org",
                            "code": "94500-6",
                            "display": "SARS-CoV-2 (COVID-19) RNA [Presence] in Respiratory specimen by NAA with probe detection"
                        }
                    ],
                    "text": "SARS-CoV-2-RNA (PCR)"
                },
                "subject": {
                    "reference": "Patient/ef25d8db-ac93-47bb-b016-426f5b2c85b1"
                },
                "effectiveDateTime": "2020-10-16T08:49:21+02:00",
                "valueCodeableConcept": {
                    "coding": [
                        {
                            "system": "http://snomed.info/sct",
                            "code": "260373001",
                            "display": "Detected (qualifier value)"
                        }
                    ],
                    "text": "SARS-CoV-2-RNA positiv"
                }
            },
            "request": {
                "method": "POST",
                "url": "Observation"
            }
        },
        {
            "resource": {
                "resourceType": "Immunization",
                "id": "85bd2fab-256b-43d6-9671-4f97c1407d0f",
                "meta": {
                    "profile": [
                        "https://www.netzwerk-universitaetsmedizin.de/fhir/StructureDefinition/immunization"
                    ]
                },
                "status": "completed",
                "vaccineCode": {
                    "coding": [
                        {
                            "system": "http://snomed.info/sct",
                            "code": "836398006",
                            "display": "Vaccine product containing Streptococcus pneumoniae antigen (medicinal product)"
                        }
                    ]
                },
                "patient": {
                    "reference": "Patient/ef25d8db-ac93-47bb-b016-426f5b2c85b1"
                },
                "occurrenceDateTime": "2020-10-06",
                "protocolApplied": [
                    {
                        "targetDisease": [
                            {
                                "coding": [
                                    {
                                        "system": "http://snomed.info/sct",
                                        "code": "16814004",
                                        "display": "Pneumococcal infectious disease (disorder)"
                                    }
                                ]
                            }
                        ],
                        "_doseNumberString": {
                            "extension": [
                                {
                                    "url": "http://hl7.org/fhir/StructureDefinition/data-absent-reason",
                                    "valueCode": "unknown"
                                }
                            ]
                        }
                    }
                ]
            },
            "request": {
                "method": "POST",
                "url": "Immunization"
            }
        },
        {
            "resource": {
                "resourceType": "Observation",
                "id": "22732de8-3eb6-477e-81d6-28fb906b3e4e",
                "meta": {
                    "profile": [
                        "https://www.netzwerk-universitaetsmedizin.de/fhir/StructureDefinition/sars-cov-2-ab-ser-pl-ia-acnc"
                    ]
                },
                "identifier": [
                    {
                        "type": {
                            "coding": [
                                {
                                    "system": "http://terminology.hl7.org/CodeSystem/v2-0203",
                                    "code": "OBI"
                                }
                            ]
                        },
                        "system": "https://www.charite.de/fhir/CodeSystem/lab-identifiers",
                        "value": "94769-7_SARS-CoV-2-Ab-Qn",
                        "assigner": {
                            "reference": "Organization/Charit\u00e9"
                        }
                    }
                ],
                "status": "final",
                "category": [
                    {
                        "coding": [
                            {
                                "system": "http://loinc.org",
                                "code": "26436-6"
                            },
                            {
                                "system": "http://terminology.hl7.org/CodeSystem/observation-category",
                                "code": "laboratory"
                            }
                        ]
                    }
                ],
                "code": {
                    "coding": [
                        {
                            "system": "http://loinc.org",
                            "code": "94769-7",
                            "display": "SARS-CoV-2 (COVID-19) Ab [Units/volume] in Serum or Plasma by Immunoassay"
                        }
                    ],
                    "text": "SARS-CoV-2 antibodies quantitative"
                },
                "subject": {
                    "reference": "Patient/ef25d8db-ac93-47bb-b016-426f5b2c85b1"
                },
                "effectiveDateTime": "2020-10-19T08:43:33+02:00",
                "valueQuantity": {
                    "value": 240,
                    "unit": "[IU]/mL",
                    "system": "http://unitsofmeasure.org",
                    "code": "[IU]/mL"
                }
            },
            "request": {
                "method": "POST",
                "url": "Observation"
            }
        },
        {
            "resource": {
                "resourceType": "Observation",
                "id": "c8079220-594c-42dc-8cea-7a52a6833c2c",
                "meta": {
                    "profile": [
                        "https://www.netzwerk-universitaetsmedizin.de/fhir/StructureDefinition/heart-rate"
                    ]
                },
                "identifier": [
                    {
                        "type": {
                            "coding": [
                                {
                                    "system": "http://terminology.hl7.org/CodeSystem/v2-0203",
                                    "code": "OBI"
                                }
                            ]
                        },
                        "system": "https://www.charite.de/fhir/CodeSystem/observation-identifiers",
                        "value": "8867-4_HeartRate",
                        "assigner": {
                            "reference": "Organization/Charit\u00e9"
                        }
                    }
                ],
                "status": "final",
                "category": [
                    {
                        "coding": [
                            {
                                "system": "http://terminology.hl7.org/CodeSystem/observation-category",
                                "code": "vital-signs"
                            }
                        ]
                    }
                ],
                "code": {
                    "coding": [
                        {
                            "system": "http://loinc.org",
                            "code": "8867-4",
                            "display": "Heart rate"
                        },
                        {
                            "system": "http://snomed.info/sct",
                            "code": "364075005",
                            "display": "Heart rate (observable entity)"
                        }
                    ],
                    "text": "Heart rate"
                },
                "subject": {
                    "reference": "Patient/ef25d8db-ac93-47bb-b016-426f5b2c85b1"
                },
                "effectiveDateTime": "2020-09-25",
                "valueQuantity": {
                    "value": 81,
                    "unit": "per minute",
                    "system": "http://unitsofmeasure.org",
                    "code": "/min"
                }
            },
            "request": {
                "method": "POST",
                "url": "Observation"
            }
        },
        {
            "resource": {
                "resourceType": "Patient",
                "id": "ef25d8db-ac93-47bb-b016-426f5b2c85b1",
                "meta": {
                    "profile": [
                        "https://www.netzwerk-universitaetsmedizin.de/fhir/StructureDefinition/Patient"
                    ]
                },
                "text": {
                    "status": "generated",
                    "div": "<div xmlns=\"http://www.w3.org/1999/xhtml\"><table class=\"hapiPropertyTable\"><tbody><tr><td>Identifier</td><td>codex_6348Q7</td></tr><tr><td>Date of birth</td><td><span>30 September 1953</span></td></tr></tbody></table></div>"
                },
                "extension": [
                    {
                        "url": "https://www.netzwerk-universitaetsmedizin.de/fhir/StructureDefinition/ethnic-group",
                        "valueCoding": {
                            "system": "http://snomed.info/sct",
                            "code": "26242008",
                            "display": "Mixed (qualifier value)"
                        }
                    },
                    {
                        "url": "https://www.netzwerk-universitaetsmedizin.de/fhir/StructureDefinition/age",
                        "extension": [
                            {
                                "url": "dateTimeOfDocumentation",
                                "valueDateTime": "2022-07-15"
                            },
                            {
                                "url": "age",
                                "valueAge": {
                                    "value": 4,
                                    "unit": "years",
                                    "system": "http://unitsofmeasure.org",
                                    "code": "a"
                                }
                            }
                        ]
                    }
                ],
                "identifier": [
                    {
                        "type": {
                            "coding": [
                                {
                                    "system": "http://terminology.hl7.org/CodeSystem/v2-0203",
                                    "code": "ANON"
                                }
                            ]
                        },
                        "system": "http://www.netzwerk-universitaetsmedizin.de/sid/bloom-filter",
                        "value": ""
                    }
                ],
                "gender": "female",
                "birthDate": "2018-07-07"
            },
            "request": {
                "method": "PUT",
                "url": "Patient/ef25d8db-ac93-47bb-b016-426f5b2c85b1"
            }
        },
        {
            "resource": {
                "resourceType": "Condition",
                "id": "ef23aad6-3e79-4e0d-a017-8915d7ed1480",
                "meta": {
                    "profile": [
                        "https://www.netzwerk-universitaetsmedizin.de/fhir/StructureDefinition/complications-covid-19"
                    ]
                },
                "modifierExtension": [
                    {
                        "url": "https://www.netzwerk-universitaetsmedizin.de/fhir/StructureDefinition/uncertainty-of-presence",
                        "valueCodeableConcept": {
                            "coding": [
                                {
                                    "system": "http://snomed.info/sct",
                                    "code": "261665006",
                                    "display": "Unknown (qualifier value)"
                                }
                            ],
                            "text": "Presence of condition is unknown."
                        }
                    }
                ],
                "category": [
                    {
                        "coding": [
                            {
                                "system": "http://snomed.info/sct",
                                "code": "116223007",
                                "display": "Complication (disorder)"
                            }
                        ]
                    }
                ],
                "code": {
                    "coding": [
                        {
                            "system": "http://snomed.info/sct",
                            "code": "22298006",
                            "display": "Myocardial infarction (disorder)"
                        }
                    ]
                },
                "subject": {
                    "reference": "Patient/ef25d8db-ac93-47bb-b016-426f5b2c85b1"
                },
                "recordedDate": "2020-10-15T16:07:48+02:00"
            },
            "request": {
                "method": "POST",
                "url": "Condition"
            }
        },
        {
            "resource": {
                "resourceType": "Observation",
                "id": "a9d2f75a-7782-4d55-8284-0dcfbf21b8e7",
                "meta": {
                    "profile": [
                        "https://www.netzwerk-universitaetsmedizin.de/fhir/StructureDefinition/sex-assigned-at-birth"
                    ]
                },
                "status": "final",
                "category": [
                    {
                        "coding": [
                            {
                                "system": "http://terminology.hl7.org/CodeSystem/observation-category",
                                "code": "social-history",
                                "display": "Social History"
                            }
                        ]
                    }
                ],
                "code": {
                    "coding": [
                        {
                            "system": "http://loinc.org",
                            "code": "76689-9",
                            "display": "Sex assigned at birth"
                        }
                    ]
                },
                "subject": {
                    "reference": "Patient/ef25d8db-ac93-47bb-b016-426f5b2c85b1"
                },
                "effectiveDateTime": "2020-10-26T10:51:48+01:00",
                "valueCodeableConcept": {
                    "coding": [
                        {
                            "system": "http://hl7.org/fhir/administrative-gender",
                            "code": "female",
                            "display": "Female"
                        }
                    ],
                    "text": "Female"
                }
            },
            "request": {
                "method": "POST",
                "url": "Observation"
            }
        },
        {
            "resource": {
                "resourceType": "Observation",
                "id": "bdae0949-afc5-45c4-80b0-d82289e677b7",
                "meta": {
                    "profile": [
                        "https://www.medizininformatik-initiative.de/fhir/core/modul-labor/StructureDefinition/ObservationLab"
                    ]
                },
                "identifier": [
                    {
                        "type": {
                            "coding": [
                                {
                                    "system": "http://terminology.hl7.org/CodeSystem/v2-0203",
                                    "code": "OBI"
                                }
                            ]
                        },
                        "system": "https://www.charite.de/fhir/CodeSystem/lab-identifiers",
                        "value": "14804-9_lactate-dehydrogenase-enzymatic-activity-per-volume-in-serum-or-plasma-by-lactate-to-pyruvate-reaction",
                        "assigner": {
                            "reference": "Organization/Charit\u00e9"
                        }
                    }
                ],
                "status": "final",
                "category": [
                    {
                        "coding": [
                            {
                                "system": "http://loinc.org",
                                "code": "26436-6"
                            },
                            {
                                "system": "http://terminology.hl7.org/CodeSystem/observation-category",
                                "code": "laboratory"
                            }
                        ]
                    }
                ],
                "code": {
                    "coding": [
                        {
                            "system": "http://loinc.org",
                            "code": "14804-9",
                            "display": "Lactate dehydrogenase [Enzymatic activity/volume] in Serum or Plasma by Lactate to pyruvate reaction"
                        }
                    ],
                    "text": "Lactate dehydrogenase"
                },
                "subject": {
                    "reference": "Patient/ef25d8db-ac93-47bb-b016-426f5b2c85b1"
                },
                "effectiveDateTime": "2020-10-16T08:49:21+02:00",
                "valueQuantity": {
                    "value": 244,
                    "unit": "U/L",
                    "system": "http://unitsofmeasure.org",
                    "code": "U/L"
                }
            },
            "request": {
                "method": "POST",
                "url": "Observation"
            }
        },
        {
            "resource": {
                "resourceType": "Procedure",
                "id": "4b25d237-886d-4aa7-945d-a70d903d8eea",
                "meta": {
                    "profile": [
                        "https://www.netzwerk-universitaetsmedizin.de/fhir/StructureDefinition/extracorporeal-membrane-oxygenation"
                    ]
                },
                "status": "completed",
                "category": {
                    "coding": [
                        {
                            "system": "http://snomed.info/sct",
                            "code": "277132007",
                            "display": "Therapeutic procedure (procedure)"
                        }
                    ]
                },
                "code": {
                    "coding": [
                        {
                            "system": "http://snomed.info/sct",
                            "code": "233573008",
                            "display": "Extracorporeal membrane oxygenation (procedure)"
                        }
                    ],
                    "text": "ECMO"
                },
                "subject": {
                    "reference": "Patient/ef25d8db-ac93-47bb-b016-426f5b2c85b1"
                },
                "_performedDateTime": {
                    "extension": [
                        {
                            "url": "http://hl7.org/fhir/StructureDefinition/data-absent-reason",
                            "valueCode": "unknown"
                        }
                    ]
                }
            },
            "request": {
                "method": "POST",
                "url": "Procedure"
            }
        },
        {
            "resource": {
                "resourceType": "Observation",
                "id": "b5adbc53-a1ee-4a57-9ede-fae4b4462bfb",
                "meta": {
                    "profile": [
                        "https://www.netzwerk-universitaetsmedizin.de/fhir/StructureDefinition/sars-cov-2-igm-ser-pl-ia-acnc"
                    ]
                },
                "identifier": [
                    {
                        "type": {
                            "coding": [
                                {
                                    "system": "http://terminology.hl7.org/CodeSystem/v2-0203",
                                    "code": "OBI"
                                }
                            ]
                        },
                        "system": "https://www.charite.de/fhir/CodeSystem/lab-identifiers",
                        "value": "94505-5_SARS-CoV-2-IgM-Qn",
                        "assigner": {
                            "reference": "Organization/Charit\u00e9"
                        }
                    }
                ],
                "status": "final",
                "category": [
                    {
                        "coding": [
                            {
                                "system": "http://loinc.org",
                                "code": "26436-6"
                            },
                            {
                                "system": "http://terminology.hl7.org/CodeSystem/observation-category",
                                "code": "laboratory"
                            }
                        ]
                    }
                ],
                "code": {
                    "coding": [
                        {
                            "system": "http://loinc.org",
                            "code": "94506-3",
                            "display": "SARS-CoV-2 (COVID-19) IgM Ab [Units/volume] in Serum or Plasma by Immunoassay"
                        }
                    ],
                    "text": "SARS-CoV-2 IgM antibodies quantitative"
                },
                "subject": {
                    "reference": "Patient/ef25d8db-ac93-47bb-b016-426f5b2c85b1"
                },
                "effectiveDateTime": "2020-10-19T08:43:33+02:00",
                "valueQuantity": {
                    "value": 219.5,
                    "unit": "[arb'U]/mL",
                    "system": "http://unitsofmeasure.org",
                    "code": "[arb'U]/mL"
                }
            },
            "request": {
                "method": "POST",
                "url": "Observation"
            }
        },
        {
            "resource": {
                "resourceType": "Procedure",
                "id": "2b813af9-3b67-4f9c-ad82-825f7f6ffb67",
                "meta": {
                    "profile": [
                        "https://www.netzwerk-universitaetsmedizin.de/fhir/StructureDefinition/apheresis"
                    ]
                },
                "status": "not-done",
                "category": {
                    "coding": [
                        {
                            "system": "http://snomed.info/sct",
                            "code": "277132007",
                            "display": "Therapeutic procedure (procedure)"
                        }
                    ]
                },
                "code": {
                    "coding": [
                        {
                            "system": "http://snomed.info/sct",
                            "code": "127788007",
                            "display": "Apheresis (procedure)"
                        }
                    ],
                    "text": "Apheresis"
                },
                "subject": {
                    "reference": "Patient/ef25d8db-ac93-47bb-b016-426f5b2c85b1"
                },
                "_performedDateTime": {
                    "extension": [
                        {
                            "url": "http://hl7.org/fhir/StructureDefinition/data-absent-reason",
                            "valueCode": "not-performed"
                        }
                    ]
                }
            },
            "request": {
                "method": "POST",
                "url": "Procedure"
            }
        },
        {
            "resource": {
                "resourceType": "Procedure",
                "id": "f5084a70-d217-47aa-858a-7565e45b922b",
                "meta": {
                    "profile": [
                        "https://www.netzwerk-universitaetsmedizin.de/fhir/StructureDefinition/radiology-procedures"
                    ]
                },
                "status": "completed",
                "category": {
                    "coding": [
                        {
                            "system": "http://snomed.info/sct",
                            "code": "103693007",
                            "display": "Diagnostic procedure (procedure)"
                        }
                    ]
                },
                "code": {
                    "coding": [
                        {
                            "system": "http://snomed.info/sct",
                            "code": "77477000",
                            "display": "Computerized axial tomography (procedure)"
                        },
                        {
                            "system": "http://dicom.nema.org/resources/ontology/DCM",
                            "code": "CT",
                            "display": "Computed Tomography"
                        }
                    ],
                    "text": "Computed Tomography"
                },
                "subject": {
                    "reference": "Patient/ef25d8db-ac93-47bb-b016-426f5b2c85b1"
                },
                "performedDateTime": "2020-09-30",
                "bodySite": [
                    {
                        "coding": [
                            {
                                "system": "http://snomed.info/sct",
                                "code": "39607008",
                                "display": "Lung structure (body structure)"
                            }
                        ]
                    }
                ],
                "report": [
                    {
                        "reference": "DiagnosticReport/example"
                    }
                ]
            },
            "request": {
                "method": "POST",
                "url": "Procedure"
            }
        },
        {
            "resource": {
                "resourceType": "Condition",
                "id": "e28106c0-6b03-4ef2-9f99-50c9f9309166",
                "meta": {
                    "profile": [
                        "https://www.netzwerk-universitaetsmedizin.de/fhir/StructureDefinition/rheumatological-immunological-diseases"
                    ]
                },
                "modifierExtension": [
                    {
                        "url": "https://www.netzwerk-universitaetsmedizin.de/fhir/StructureDefinition/uncertainty-of-presence",
                        "valueCodeableConcept": {
                            "coding": [
                                {
                                    "system": "http://snomed.info/sct",
                                    "code": "261665006",
                                    "display": "Unknown (qualifier value)"
                                }
                            ],
                            "text": "Presence of condition is unknown."
                        }
                    }
                ],
                "category": [
                    {
                        "coding": [
                            {
                                "system": "http://snomed.info/sct",
                                "code": "394810000",
                                "display": "Rheumatology"
                            },
                            {
                                "system": "http://snomed.info/sct",
                                "code": "408480009",
                                "display": "Clinical immunology"
                            }
                        ]
                    }
                ],
                "code": {
                    "coding": [
                        {
                            "system": "http://snomed.info/sct",
                            "code": "69896004",
                            "display": "Rheumatoid arthritis"
                        }
                    ]
                },
                "subject": {
                    "reference": "Patient/ef25d8db-ac93-47bb-b016-426f5b2c85b1"
                },
                "recordedDate": "2020-10-06"
            },
            "request": {
                "method": "POST",
                "url": "Condition"
            }
        },
        {
            "resource": {
                "resourceType": "Observation",
                "id": "7e746710-fad4-474b-8a28-422863f3a2b8",
                "meta": {
                    "profile": [
                        "https://www.netzwerk-universitaetsmedizin.de/fhir/StructureDefinition/sars-cov-2-iga-ser-pl-ia-acnc"
                    ]
                },
                "identifier": [
                    {
                        "type": {
                            "coding": [
                                {
                                    "system": "http://terminology.hl7.org/CodeSystem/v2-0203",
                                    "code": "OBI"
                                }
                            ]
                        },
                        "system": "https://www.charite.de/fhir/CodeSystem/lab-identifiers",
                        "value": "94720-0_SARS-CoV-2-IgA-Qn",
                        "assigner": {
                            "reference": "Organization/Charit\u00e9"
                        }
                    }
                ],
                "status": "final",
                "category": [
                    {
                        "coding": [
                            {
                                "system": "http://loinc.org",
                                "code": "26436-6"
                            },
                            {
                                "system": "http://terminology.hl7.org/CodeSystem/observation-category",
                                "code": "laboratory"
                            }
                        ]
                    }
                ],
                "code": {
                    "coding": [
                        {
                            "system": "http://loinc.org",
                            "code": "94720-0",
                            "display": "SARS-CoV-2 (COVID-19) IgA Ab [Units/volume] in Serum or Plasma by Immunoassay"
                        }
                    ],
                    "text": "SARS-CoV-2 IgA antibodies quantitative"
                },
                "subject": {
                    "reference": "Patient/ef25d8db-ac93-47bb-b016-426f5b2c85b1"
                },
                "effectiveDateTime": "2020-10-19T08:43:33+02:00",
                "valueQuantity": {
                    "value": 0.5,
                    "unit": "[IU]/mL",
                    "system": "http://unitsofmeasure.org",
                    "code": "[IU]/mL"
                }
            },
            "request": {
                "method": "POST",
                "url": "Observation"
            }
        },
        {
            "resource": {
                "resourceType": "Observation",
                "id": "93c0cef8-ad40-4b16-b164-6c7a989b462a",
                "meta": {
                    "profile": [
                        "https://www.netzwerk-universitaetsmedizin.de/fhir/StructureDefinition/pregnancy-status"
                    ]
                },
                "identifier": [
                    {
                        "type": {
                            "coding": [
                                {
                                    "system": "http://terminology.hl7.org/CodeSystem/v2-0203",
                                    "code": "OBI"
                                }
                            ]
                        },
                        "system": "https://www.charite.de/fhir/CodeSystem/observation-identifiers",
                        "value": "82810-3_PregnancyDtatus",
                        "assigner": {
                            "reference": "Organization/Charit\u00e9"
                        }
                    }
                ],
                "status": "final",
                "category": [
                    {
                        "coding": [
                            {
                                "system": "http://terminology.hl7.org/CodeSystem/observation-category",
                                "code": "social-history"
                            }
                        ]
                    }
                ],
                "code": {
                    "coding": [
                        {
                            "system": "http://loinc.org",
                            "code": "82810-3",
                            "display": "Pregnancy status"
                        }
                    ],
                    "text": "Pregnancy status"
                },
                "subject": {
                    "reference": "Patient/ef25d8db-ac93-47bb-b016-426f5b2c85b1"
                },
                "effectiveDateTime": "2020-10-02",
                "valueCodeableConcept": {
                    "coding": [
                        {
                            "system": "http://loinc.org",
                            "code": "LA26683-5",
                            "display": "Not pregnant"
                        },
                        {
                            "system": "http://snomed.info/sct",
                            "code": "60001007",
                            "display": "Not pregnant (finding)"
                        }
                    ]
                }
            },
            "request": {
                "method": "POST",
                "url": "Observation"
            }
        },
        {
            "resource": {
                "resourceType": "MedicationStatement",
                "id": "f00520d3-ccf1-4231-98ca-fc99069a7bf3",
                "meta": {
                    "profile": [
                        "https://www.netzwerk-universitaetsmedizin.de/fhir/StructureDefinition/pharmacological-therapy-ace-inhibitors"
                    ]
                },
                "status": "not-taken",
                "medicationCodeableConcept": {
                    "coding": [
                        {
                            "system": "http://snomed.info/sct",
                            "code": "41549009",
                            "display": "Product containing angiotensin-converting enzyme inhibitor (product)"
                        },
                        {
                            "system": "http://fhir.de/CodeSystem/bfarm/atc",
                            "code": "C09A",
                            "display": "ACE-HEMMER, REIN"
                        }
                    ],
                    "text": "ACE inhibitors"
                },
                "subject": {
                    "reference": "Patient/ef25d8db-ac93-47bb-b016-426f5b2c85b1"
                },
                "effectiveDateTime": "2020-10-19T08:43:33+02:00"
            },
            "request": {
                "method": "POST",
                "url": "MedicationStatement"
            }
        },
        {
            "resource": {
                "resourceType": "Condition",
                "id": "eb010879-b54b-42d1-8e01-ec42ba61e7d8",
                "meta": {
                    "profile": [
                        "https://www.netzwerk-universitaetsmedizin.de/fhir/StructureDefinition/symptoms-covid-19"
                    ]
                },
                "clinicalStatus": {
                    "coding": [
                        {
                            "system": "http://terminology.hl7.org/CodeSystem/condition-clinical",
                            "code": "active",
                            "display": "Active"
                        }
                    ]
                },
                "verificationStatus": {
                    "coding": [
                        {
                            "system": "http://terminology.hl7.org/CodeSystem/condition-ver-status",
                            "code": "confirmed",
                            "display": "Confirmed"
                        },
                        {
                            "system": "http://snomed.info/sct",
                            "code": "410605003",
                            "display": "Confirmed present (qualifier value)"
                        }
                    ]
                },
                "category": [
                    {
                        "coding": [
                            {
                                "system": "http://loinc.org",
                                "code": "75325-1",
                                "display": "Symptom"
                            }
                        ]
                    }
                ],
                "severity": {
                    "coding": [
                        {
                            "system": "http://snomed.info/sct",
                            "code": "24484000",
                            "display": "Severe"
                        }
                    ]
                },
                "code": {
                    "coding": [
                        {
                            "system": "http://snomed.info/sct",
                            "code": "49727002",
                            "display": "Cough"
                        }
                    ]
                },
                "subject": {
                    "reference": "Patient/ef25d8db-ac93-47bb-b016-426f5b2c85b1"
                },
                "recordedDate": "2020-10-05"
            },
            "request": {
                "method": "POST",
                "url": "Condition"
            }
        },
        {
            "resource": {
                "resourceType": "Observation",
                "id": "example-observation-bp-invasive",
                "meta": {
                    "profile": [
                        "https://www.netzwerk-universitaetsmedizin.de/fhir/StructureDefinition/blood-pressure"
                    ]
                },
                "identifier": [
                    {
                        "type": {
                            "coding": [
                                {
                                    "system": "http://terminology.hl7.org/CodeSystem/v2-0203",
                                    "code": "OBI"
                                }
                            ]
                        },
                        "system": "https://www.charite.de/fhir/CodeSystem/observation-identifiers",
                        "value": "85354-9_BloodPressure",
                        "assigner": {
                            "reference": "Organization/Charit\u00e9"
                        }
                    }
                ],
                "status": "final",
                "category": [
                    {
                        "coding": [
                            {
                                "system": "http://terminology.hl7.org/CodeSystem/observation-category",
                                "code": "vital-signs"
                            }
                        ]
                    }
                ],
                "code": {
                    "coding": [
                        {
                            "system": "http://loinc.org",
                            "code": "85354-9",
                            "display": "Blood pressure panel with all children optional"
                        },
                        {
                            "system": "http://snomed.info/sct",
                            "code": "75367002",
                            "display": "Blood pressure (observable entity)"
                        }
                    ],
                    "text": "Blood pressure invasive"
                },
                "subject": {
                    "reference": "Patient/ef25d8db-ac93-47bb-b016-426f5b2c85b1"
                },
                "effectiveDateTime": "2021-04-14",
                "method": {
                    "coding": [
                        {
                            "system": "http://snomed.info/sct",
                            "code": "10179008",
                            "display": "Invasive (qualifier value)"
                        }
                    ]
                },
                "component": [
                    {
                        "code": {
                            "coding": [
                                {
                                    "system": "http://loinc.org",
                                    "code": "8480-6",
                                    "display": "Systolic blood pressure"
                                },
                                {
                                    "system": "http://loinc.org",
                                    "code": "76215-3",
                                    "display": "Invasive Systolic blood pressure"
                                },
                                {
                                    "system": "http://snomed.info/sct",
                                    "code": "271649006",
                                    "display": "Systolic blood pressure"
                                },
                                {
                                    "system": "http://snomed.info/sct",
                                    "code": "251071003",
                                    "display": "Invasive systolic arterial pressure (observable entity)"
                                }
                            ],
                            "text": "Invasive systolic blood pressure"
                        },
                        "valueQuantity": {
                            "value": 136,
                            "unit": "mmHg",
                            "system": "http://unitsofmeasure.org",
                            "code": "mm[Hg]"
                        }
                    },
                    {
                        "code": {
                            "coding": [
                                {
                                    "system": "http://loinc.org",
                                    "code": "8462-4",
                                    "display": "Diastolic blood pressure"
                                },
                                {
                                    "system": "http://loinc.org",
                                    "code": "76213-8",
                                    "display": "Invasive Diastolic blood pressure"
                                },
                                {
                                    "system": "http://snomed.info/sct",
                                    "code": "271650006",
                                    "display": "Diastolic blood pressure (observable entity)"
                                },
                                {
                                    "system": "http://snomed.info/sct",
                                    "code": "251073000",
                                    "display": "Invasive diastolic arterial pressure (observable entity)"
                                }
                            ],
                            "text": "Invasive diastolic blood pressure"
                        },
                        "valueQuantity": {
                            "value": 87,
                            "unit": "mmHg",
                            "system": "http://unitsofmeasure.org",
                            "code": "mm[Hg]"
                        }
                    }
                ]
            },
            "request": {
                "method": "POST",
                "url": "Observation"
            }
        },
        {
            "resource": {
                "resourceType": "Observation",
                "id": "eec00864-8fe5-4c47-89f7-e687f30ae977",
                "meta": {
                    "profile": [
                        "https://www.netzwerk-universitaetsmedizin.de/fhir/StructureDefinition/discharge-disposition"
                    ]
                },
                "identifier": [
                    {
                        "type": {
                            "coding": [
                                {
                                    "system": "http://terminology.hl7.org/CodeSystem/v2-0203",
                                    "code": "OBI"
                                }
                            ]
                        },
                        "system": "https://www.charite.de/fhir/CodeSystem/observation-identifiers",
                        "value": "55128-3_DischargeDisposition",
                        "assigner": {
                            "reference": "Organization/Charit\u00e9"
                        }
                    }
                ],
                "status": "final",
                "category": [
                    {
                        "coding": [
                            {
                                "system": "http://terminology.hl7.org/CodeSystem/observation-category",
                                "code": "social-history"
                            }
                        ]
                    }
                ],
                "code": {
                    "coding": [
                        {
                            "system": "http://loinc.org",
                            "code": "55128-3",
                            "display": "Discharge disposition"
                        }
                    ],
                    "text": "Type of discharge"
                },
                "subject": {
                    "reference": "Patient/ef25d8db-ac93-47bb-b016-426f5b2c85b1"
                },
                "effectiveDateTime": "2020-10-16T08:49:21+02:00",
                "valueCodeableConcept": {
                    "coding": [
                        {
                            "system": "http://snomed.info/sct",
                            "code": "3457005",
                            "display": "Patient referral (procedure)"
                        }
                    ]
                }
            },
            "request": {
                "method": "POST",
                "url": "Observation"
            }
        },
        {
            "resource": {
                "resourceType": "Observation",
                "id": "675a24e8-6646-49a7-8b06-3471c8fc497f",
                "meta": {
                    "profile": [
                        "https://www.netzwerk-universitaetsmedizin.de/fhir/StructureDefinition/smoking-status"
                    ]
                },
                "status": "final",
                "category": [
                    {
                        "coding": [
                            {
                                "system": "http://terminology.hl7.org/CodeSystem/observation-category",
                                "code": "social-history",
                                "display": "Social History"
                            }
                        ]
                    }
                ],
                "code": {
                    "coding": [
                        {
                            "system": "http://loinc.org",
                            "code": "72166-2",
                            "display": "Tobacco smoking status"
                        }
                    ]
                },
                "subject": {
                    "reference": "Patient/ef25d8db-ac93-47bb-b016-426f5b2c85b1"
                },
                "effectiveDateTime": "2020-10-06",
                "valueCodeableConcept": {
                    "coding": [
                        {
                            "system": "http://loinc.org",
                            "code": "LA18980-5",
                            "display": "Unknown if ever smoked"
                        }
                    ],
                    "text": "Unknown if patient ever smoked"
                }
            },
            "request": {
                "method": "POST",
                "url": "Observation"
            }
        },
        {
            "resource": {
                "resourceType": "Condition",
                "id": "c8aa5893-1f5e-4d1b-b37d-146a48a39581",
                "meta": {
                    "profile": [
                        "https://www.netzwerk-universitaetsmedizin.de/fhir/StructureDefinition/chronic-kidney-diseases"
                    ]
                },
                "clinicalStatus": {
                    "coding": [
                        {
                            "system": "http://terminology.hl7.org/CodeSystem/condition-clinical",
                            "code": "active",
                            "display": "Active"
                        }
                    ]
                },
                "verificationStatus": {
                    "coding": [
                        {
                            "system": "http://terminology.hl7.org/CodeSystem/condition-ver-status",
                            "code": "confirmed",
                            "display": "Confirmed"
                        },
                        {
                            "system": "http://snomed.info/sct",
                            "code": "410605003",
                            "display": "Confirmed present (qualifier value)"
                        }
                    ]
                },
                "category": [
                    {
                        "coding": [
                            {
                                "system": "http://snomed.info/sct",
                                "code": "394589003",
                                "display": "Nephrology (qualifier value)"
                            }
                        ]
                    }
                ],
                "code": {
                    "coding": [
                        {
                            "system": "http://snomed.info/sct",
                            "code": "709044004",
                            "display": "Chronic kidney disease (disorder)"
                        }
                    ]
                },
                "subject": {
                    "reference": "Patient/ef25d8db-ac93-47bb-b016-426f5b2c85b1"
                },
                "recordedDate": "2020-10-28T17:01:09+01:00"
            },
            "request": {
                "method": "POST",
                "url": "Condition"
            }
        },
        {
            "resource": {
                "resourceType": "Condition",
                "id": "c02bf407-199c-4dae-a6c9-f93f3911eca0",
                "meta": {
                    "profile": [
                        "https://www.netzwerk-universitaetsmedizin.de/fhir/StructureDefinition/cardiovascular-diseases"
                    ]
                },
                "clinicalStatus": {
                    "coding": [
                        {
                            "system": "http://terminology.hl7.org/CodeSystem/condition-clinical",
                            "code": "active",
                            "display": "Active"
                        }
                    ]
                },
                "verificationStatus": {
                    "coding": [
                        {
                            "system": "http://terminology.hl7.org/CodeSystem/condition-ver-status",
                            "code": "confirmed",
                            "display": "Confirmed"
                        },
                        {
                            "system": "http://snomed.info/sct",
                            "code": "410605003",
                            "display": "Confirmed present (qualifier value)"
                        }
                    ]
                },
                "category": [
                    {
                        "coding": [
                            {
                                "system": "http://snomed.info/sct",
                                "code": "722414000",
                                "display": "Vascular medicine"
                            }
                        ]
                    }
                ],
                "code": {
                    "coding": [
                        {
                            "system": "http://snomed.info/sct",
                            "code": "399211009",
                            "display": "History of myocardial infarction (situation)"
                        }
                    ]
                },
                "subject": {
                    "reference": "Patient/ef25d8db-ac93-47bb-b016-426f5b2c85b1"
                },
                "recordedDate": "2020-10-06"
            },
            "request": {
                "method": "POST",
                "url": "Condition"
            }
        },
        {
            "resource": {
                "resourceType": "Observation",
                "id": "813f6951-d737-4e43-a078-40adfe468892",
                "meta": {
                    "profile": [
                        "https://www.netzwerk-universitaetsmedizin.de/fhir/StructureDefinition/history-of-travel"
                    ]
                },
                "identifier": [
                    {
                        "type": {
                            "coding": [
                                {
                                    "system": "http://terminology.hl7.org/CodeSystem/v2-0203",
                                    "code": "OBI"
                                }
                            ]
                        },
                        "system": "https://www.charite.de/fhir/CodeSystem/observation-identifiers",
                        "value": "8691-8_HistoryOfTravel",
                        "assigner": {
                            "reference": "Organization/Charit\u00e9"
                        }
                    }
                ],
                "status": "final",
                "category": [
                    {
                        "coding": [
                            {
                                "system": "http://terminology.hl7.org/CodeSystem/observation-category",
                                "code": "social-history"
                            }
                        ]
                    }
                ],
                "code": {
                    "coding": [
                        {
                            "system": "http://loinc.org",
                            "code": "8691-8",
                            "display": "History of Travel"
                        },
                        {
                            "system": "http://snomed.info/sct",
                            "code": "443846001",
                            "display": "Detail of history of travel (observable entity)"
                        }
                    ],
                    "text": "History of travel"
                },
                "subject": {
                    "reference": "Patient/ef25d8db-ac93-47bb-b016-426f5b2c85b1"
                },
                "effectiveDateTime": "2020-11-09T12:57:06+01:00",
                "valueCodeableConcept": {
                    "coding": [
                        {
                            "system": "http://snomed.info/sct",
                            "code": "261665006",
                            "display": "Unknown (qualifier value)"
                        }
                    ]
                }
            },
            "request": {
                "method": "POST",
                "url": "Observation"
            }
        },
        {
            "resource": {
                "resourceType": "Observation",
                "id": "Example-observation-sauerstoffsaettigung",
                "meta": {
                    "profile": [
                        "https://www.netzwerk-universitaetsmedizin.de/fhir/StructureDefinition/oxygen-saturation"
                    ]
                },
                "status": "final",
                "category": [
                    {
                        "coding": [
                            {
                                "system": "http://terminology.hl7.org/CodeSystem/observation-category",
                                "code": "vital-signs"
                            }
                        ]
                    }
                ],
                "code": {
                    "coding": [
                        {
                            "system": "http://loinc.org",
                            "code": "2708-6",
                            "display": "Oxygen saturation in Arterial blood"
                        },
                        {
                            "system": "http://snomed.info/sct",
                            "code": "442476006",
                            "display": "Arterial oxygen saturation"
                        },
                        {
                            "system": "http://loinc.org",
                            "code": "59408-5",
                            "display": "Oxygen saturation in Arterial blood by Pulse oximetry"
                        },
                        {
                            "system": "http://snomed.info/sct",
                            "code": "431314004",
                            "display": "Peripheral oxygen saturation"
                        }
                    ],
                    "text": "Pulsoximetrische Sauerstoffs\u00e4ttigung"
                },
                "subject": {
                    "reference": "Patient/ef25d8db-ac93-47bb-b016-426f5b2c85b1"
                },
                "effectiveDateTime": "2020-10-11",
                "valueQuantity": {
                    "value": 98,
                    "unit": "%",
                    "system": "http://unitsofmeasure.org",
                    "code": "%"
                }
            },
            "request": {
                "method": "POST",
                "url": "Observation"
            }
        },
        {
            "resource": {
                "resourceType": "Observation",
                "id": "571c047d-3689-4fb7-9292-c1d71faecf72",
                "meta": {
                    "profile": [
                        "https://www.netzwerk-universitaetsmedizin.de/fhir/StructureDefinition/interventional-clinical-trial-participation"
                    ]
                },
                "identifier": [
                    {
                        "type": {
                            "coding": [
                                {
                                    "system": "http://terminology.hl7.org/CodeSystem/v2-0203",
                                    "code": "OBI"
                                }
                            ]
                        },
                        "system": "https://www.charite.de/fhir/CodeSystem/observation-identifiers",
                        "value": "ecrf_03_InterventionalClinicalTrialsParticipation",
                        "assigner": {
                            "reference": "Organization/Charit\u00e9"
                        }
                    }
                ],
                "status": "final",
                "category": [
                    {
                        "coding": [
                            {
                                "system": "http://terminology.hl7.org/CodeSystem/observation-category",
                                "code": "survey"
                            }
                        ]
                    }
                ],
                "code": {
                    "coding": [
                        {
                            "system": "https://www.netzwerk-universitaetsmedizin.de/fhir/CodeSystem/ecrf-parameter-codes",
                            "code": "03",
                            "display": "Participation in interventional clinical trials"
                        }
                    ],
                    "text": "Has the patient participated in one or more interventional clinical trials?"
                },
                "subject": {
                    "reference": "Patient/ef25d8db-ac93-47bb-b016-426f5b2c85b1"
                },
                "effectiveDateTime": "2020-10-16T08:49:21+02:00",
                "valueCodeableConcept": {
                    "coding": [
                        {
                            "system": "http://snomed.info/sct",
                            "code": "373066001",
                            "display": "Yes (qualifier value)"
                        }
                    ],
                    "text": "Patient is enrolled in other studies"
                },
                "component": [
                    {
                        "code": {
                            "coding": [
                                {
                                    "system": "https://www.netzwerk-universitaetsmedizin.de/fhir/CodeSystem/ecrf-parameter-codes",
                                    "code": "04",
                                    "display": "EudraCT Number"
                                }
                            ],
                            "text": "EudraCT (European Union Drug Regulating Authorities Clinical Trials) registration number"
                        },
                        "valueString": "2020-042169-13"
                    },
                    {
                        "code": {
                            "coding": [
                                {
                                    "system": "https://www.netzwerk-universitaetsmedizin.de/fhir/CodeSystem/ecrf-parameter-codes",
                                    "code": "05",
                                    "display": "NCT number"
                                }
                            ],
                            "text": "A unique identification code given to each clinical study registered on ClinicalTrials.gov"
                        },
                        "valueString": "NCT00001016"
                    }
                ]
            },
            "request": {
                "method": "POST",
                "url": "Observation"
            }
        },
        {
            "resource": {
                "resourceType": "Condition",
                "id": "56fd2ef9-3d92-4278-9277-dd1b5ca7e3d5",
                "meta": {
                    "profile": [
                        "https://www.netzwerk-universitaetsmedizin.de/fhir/StructureDefinition/diabetes-mellitus"
                    ]
                },
                "verificationStatus": {
                    "coding": [
                        {
                            "system": "http://terminology.hl7.org/CodeSystem/condition-ver-status",
                            "code": "refuted",
                            "display": "Refuted"
                        },
                        {
                            "system": "http://snomed.info/sct",
                            "code": "410594000",
                            "display": "Definitely NOT present (qualifier value)"
                        }
                    ]
                },
                "category": [
                    {
                        "coding": [
                            {
                                "system": "http://snomed.info/sct",
                                "code": "408475000",
                                "display": "Diabetic medicine"
                            }
                        ]
                    }
                ],
                "code": {
                    "coding": [
                        {
                            "system": "http://snomed.info/sct",
                            "code": "46635009",
                            "display": "Diabetes mellitus type 1"
                        }
                    ]
                },
                "subject": {
                    "reference": "Patient/ef25d8db-ac93-47bb-b016-426f5b2c85b1"
                },
                "recordedDate": "2020-10-06"
            },
            "request": {
                "method": "POST",
                "url": "Condition"
            }
        },
        {
            "resource": {
                "resourceType": "Observation",
                "id": "71e371b6-b801-4387-bd36-ea015b2df658",
                "meta": {
                    "profile": [
                        "https://www.netzwerk-universitaetsmedizin.de/fhir/StructureDefinition/sofa-score"
                    ]
                },
                "identifier": [
                    {
                        "type": {
                            "coding": [
                                {
                                    "system": "http://terminology.hl7.org/CodeSystem/v2-0203",
                                    "code": "OBI"
                                }
                            ]
                        },
                        "system": "https://www.charite.de/fhir/CodeSystem/observation-identifiers",
                        "value": "06_SOFA-Score",
                        "assigner": {
                            "reference": "Organization/Charit\u00e9"
                        }
                    }
                ],
                "status": "final",
                "category": [
                    {
                        "coding": [
                            {
                                "system": "http://terminology.hl7.org/CodeSystem/observation-category",
                                "code": "survey"
                            }
                        ]
                    }
                ],
                "code": {
                    "coding": [
                        {
                            "system": "https://www.netzwerk-universitaetsmedizin.de/fhir/CodeSystem/ecrf-parameter-codes",
                            "code": "06",
                            "display": "SOFA-Score"
                        }
                    ],
                    "text": "Sepsis-related organ failure assessment score"
                },
                "subject": {
                    "reference": "Patient/ef25d8db-ac93-47bb-b016-426f5b2c85b1"
                },
                "effectiveDateTime": "2020-11-30T11:04:49+01:00",
                "valueInteger": 15
            },
            "request": {
                "method": "POST",
                "url": "Observation"
            }
        },
        {
            "resource": {
                "resourceType": "Observation",
                "id": "70ca7d00-0d8b-42bb-9508-a8fc76e5c7ad",
                "meta": {
                    "profile": [
                        "https://www.netzwerk-universitaetsmedizin.de/fhir/StructureDefinition/sars-cov-2-ab-ser-pl-ql-ia"
                    ]
                },
                "identifier": [
                    {
                        "type": {
                            "coding": [
                                {
                                    "system": "http://terminology.hl7.org/CodeSystem/v2-0203",
                                    "code": "OBI"
                                }
                            ]
                        },
                        "system": "https://www.charite.de/fhir/CodeSystem/lab-identifiers",
                        "value": "94762-2_SARS-CoV-2-Ab-Ql",
                        "assigner": {
                            "reference": "Organization/Charit\u00e9"
                        }
                    }
                ],
                "status": "final",
                "category": [
                    {
                        "coding": [
                            {
                                "system": "http://loinc.org",
                                "code": "26436-6"
                            },
                            {
                                "system": "http://terminology.hl7.org/CodeSystem/observation-category",
                                "code": "laboratory"
                            }
                        ]
                    }
                ],
                "code": {
                    "coding": [
                        {
                            "system": "http://loinc.org",
                            "code": "94762-2",
                            "display": "SARS-CoV-2 (COVID-19) Ab [Presence] in Serum or Plasma by Immunoassay"
                        }
                    ],
                    "text": "SARS-CoV-2 antibodies qualitative"
                },
                "subject": {
                    "reference": "Patient/ef25d8db-ac93-47bb-b016-426f5b2c85b1"
                },
                "effectiveDateTime": "2020-10-19T08:43:33+02:00",
                "valueCodeableConcept": {
                    "coding": [
                        {
                            "system": "http://snomed.info/sct",
                            "code": "260373001",
                            "display": "Detected (qualifier value)"
                        }
                    ]
                }
            },
            "request": {
                "method": "POST",
                "url": "Observation"
            }
        },
        {
            "resource": {
                "resourceType": "Observation",
                "id": "e6dea5c4-60b0-43cf-b1ca-410ddd34f264",
                "meta": {
                    "profile": [
                        "https://www.netzwerk-universitaetsmedizin.de/fhir/StructureDefinition/blood-gas-panel"
                    ]
                },
                "identifier": [
                    {
                        "type": {
                            "coding": [
                                {
                                    "system": "http://terminology.hl7.org/CodeSystem/v2-0203",
                                    "code": "OBI"
                                }
                            ]
                        },
                        "system": "https://www.charite.de/fhir/CodeSystem/lab-identifiers",
                        "value": "24336-0_gasPanelBldA",
                        "assigner": {
                            "reference": "Organization/Charit\u00e9"
                        }
                    }
                ],
                "status": "final",
                "category": [
                    {
                        "coding": [
                            {
                                "system": "http://loinc.org",
                                "code": "26436-6"
                            },
                            {
                                "system": "http://terminology.hl7.org/CodeSystem/observation-category",
                                "code": "laboratory"
                            },
                            {
                                "system": "http://loinc.org",
                                "code": "18767-4"
                            }
                        ]
                    }
                ],
                "code": {
                    "coding": [
                        {
                            "system": "http://loinc.org",
                            "code": "24336-0",
                            "display": "Gas panel - Arterial blood"
                        }
                    ],
                    "text": "Gas panel - Arterial blood"
                },
                "subject": {
                    "reference": "Patient/ef25d8db-ac93-47bb-b016-426f5b2c85b1"
                },
                "effectiveDateTime": "2020-09-21",
                "hasMember": [
                    {
                        "reference": "Observation/ac8b697d-7088-4fbe-9ece-51df2d3f1e04"
                    },
                    {
                        "reference": "Observation/6a78560b-2f7c-4af5-a7bc-3c7d62ca8458"
                    },
                    {
                        "reference": "Observation/e39a18a6-63d7-4117-a38e-1f29be15f6fa"
                    },
                    {
                        "reference": "Observation/6fa9e2be-d15a-4e77-81fc-056dda521875"
                    },
                    {
                        "reference": "Observation/c9f96dd3-a77a-4aa9-9b12-43cd1972d9a4"
                    }
                ]
            },
            "request": {
                "method": "POST",
                "url": "Observation"
            }
        },
        {
            "resource": {
                "resourceType": "Observation",
                "id": "23499ea6-d046-4e91-b7ab-d9cf040add72",
                "meta": {
                    "profile": [
                        "https://www.netzwerk-universitaetsmedizin.de/fhir/StructureDefinition/body-height"
                    ]
                },
                "identifier": [
                    {
                        "type": {
                            "coding": [
                                {
                                    "system": "http://terminology.hl7.org/CodeSystem/v2-0203",
                                    "code": "OBI"
                                }
                            ]
                        },
                        "system": "https://www.charite.de/fhir/CodeSystem/observation-identifiers",
                        "value": "8302-2_BodyHeight",
                        "assigner": {
                            "reference": "Organization/Charit\u00e9"
                        }
                    }
                ],
                "status": "final",
                "category": [
                    {
                        "coding": [
                            {
                                "system": "http://terminology.hl7.org/CodeSystem/observation-category",
                                "code": "vital-signs"
                            }
                        ]
                    }
                ],
                "code": {
                    "coding": [
                        {
                            "system": "http://loinc.org",
                            "code": "8302-2",
                            "display": "Body height"
                        },
                        {
                            "system": "http://snomed.info/sct",
                            "code": "1153637007",
                            "display": "Body height (observable entity)"
                        }
                    ],
                    "text": "Body height"
                },
                "subject": {
                    "reference": "Patient/ef25d8db-ac93-47bb-b016-426f5b2c85b1"
                },
                "effectiveDateTime": "2020-10-02",
                "valueQuantity": {
                    "value": 167,
                    "unit": "centimeter",
                    "system": "http://unitsofmeasure.org",
                    "code": "cm"
                }
            },
            "request": {
                "method": "POST",
                "url": "Observation"
            }
        },
        {
            "resource": {
                "resourceType": "Condition",
                "id": "1b1a4aa2-7885-497c-bd44-8d9ee377ba2b",
                "meta": {
                    "profile": [
                        "https://www.netzwerk-universitaetsmedizin.de/fhir/StructureDefinition/organ-recipient"
                    ]
                },
                "clinicalStatus": {
                    "coding": [
                        {
                            "system": "http://terminology.hl7.org/CodeSystem/condition-clinical",
                            "code": "active",
                            "display": "Active"
                        }
                    ]
                },
                "verificationStatus": {
                    "coding": [
                        {
                            "system": "http://terminology.hl7.org/CodeSystem/condition-ver-status",
                            "code": "confirmed",
                            "display": "Confirmed"
                        },
                        {
                            "system": "http://snomed.info/sct",
                            "code": "410605003",
                            "display": "Confirmed present (qualifier value)"
                        }
                    ]
                },
                "category": [
                    {
                        "coding": [
                            {
                                "system": "http://snomed.info/sct",
                                "code": "788415003",
                                "display": "Transplant medicine"
                            }
                        ]
                    }
                ],
                "code": {
                    "coding": [
                        {
                            "system": "http://snomed.info/sct",
                            "code": "161663000",
                            "display": "History of being a tissue or organ recipient"
                        }
                    ]
                },
                "bodySite": [
                    {
                        "coding": [
                            {
                                "system": "http://snomed.info/sct",
                                "code": "181268008",
                                "display": "Entire liver"
                            }
                        ]
                    }
                ],
                "subject": {
                    "reference": "Patient/ef25d8db-ac93-47bb-b016-426f5b2c85b1"
                },
                "recordedDate": "2020-10-05"
            },
            "request": {
                "method": "POST",
                "url": "Condition"
            }
        },
        {
            "resource": {
                "resourceType": "Consent",
                "id": "7976c6e2-1b4c-4af5-99d7-a701e7f43472",
                "meta": {
                    "profile": [
                        "https://www.netzwerk-universitaetsmedizin.de/fhir/StructureDefinition/do-not-resuscitate-order"
                    ]
                },
                "status": "active",
                "scope": {
                    "coding": [
                        {
                            "system": "http://terminology.hl7.org/CodeSystem/consentscope",
                            "code": "adr",
                            "display": "Advanced Care Directive"
                        }
                    ]
                },
                "category": [
                    {
                        "coding": [
                            {
                                "system": "http://terminology.hl7.org/CodeSystem/consentcategorycodes",
                                "code": "dnr",
                                "display": "Do Not Resuscitate"
                            }
                        ]
                    }
                ],
                "patient": {
                    "reference": "Patient/ef25d8db-ac93-47bb-b016-426f5b2c85b1"
                },
                "dateTime": "2021-09-01",
                "policy": [
                    {
                        "uri": "https://www.aerzteblatt.de/archiv/65440/DNR-Anordnungen-Das-fehlende-Bindeglied"
                    }
                ],
                "provision": {
                    "code": [
                        {
                            "coding": [
                                {
                                    "system": "http://snomed.info/sct",
                                    "code": "304253006",
                                    "display": "Not for resuscitation"
                                }
                            ]
                        }
                    ]
                }
            },
            "request": {
                "method": "POST",
                "url": "Consent"
            }
        },
        {
            "resource": {
                "resourceType": "Observation",
                "id": "b08b1687-2ea1-4b14-9473-dd04389169ec",
                "meta": {
                    "profile": [
                        "https://www.netzwerk-universitaetsmedizin.de/fhir/StructureDefinition/sars-cov-2-igm-ser-pl-ql-ia"
                    ]
                },
                "identifier": [
                    {
                        "type": {
                            "coding": [
                                {
                                    "system": "http://terminology.hl7.org/CodeSystem/v2-0203",
                                    "code": "OBI"
                                }
                            ]
                        },
                        "system": "https://www.charite.de/fhir/CodeSystem/lab-identifiers",
                        "value": "94564-2_SARS-CoV-2-IgM-Ql",
                        "assigner": {
                            "reference": "Organization/Charit\u00e9"
                        }
                    }
                ],
                "status": "final",
                "category": [
                    {
                        "coding": [
                            {
                                "system": "http://loinc.org",
                                "code": "26436-6"
                            },
                            {
                                "system": "http://terminology.hl7.org/CodeSystem/observation-category",
                                "code": "laboratory"
                            }
                        ]
                    }
                ],
                "code": {
                    "coding": [
                        {
                            "system": "http://loinc.org",
                            "code": "94564-2",
                            "display": "SARS-CoV-2 (COVID-19) IgM Ab [Presence] in Serum or Plasma by Immunoassay"
                        }
                    ],
                    "text": "SARS-CoV-2 IgM antibodies qualitative"
                },
                "subject": {
                    "reference": "Patient/ef25d8db-ac93-47bb-b016-426f5b2c85b1"
                },
                "effectiveDateTime": "2020-10-19T08:43:33+02:00",
                "valueCodeableConcept": {
                    "coding": [
                        {
                            "system": "http://snomed.info/sct",
                            "code": "260373001",
                            "display": "Detected (qualifier value)"
                        }
                    ]
                }
            },
            "request": {
                "method": "POST",
                "url": "Observation"
            }
        },
        {
            "resource": {
                "resourceType": "Condition",
                "id": "31b5aa8f-a59a-41c8-97a4-a1d48867549c",
                "meta": {
                    "profile": [
                        "https://www.netzwerk-universitaetsmedizin.de/fhir/StructureDefinition/malignant-neoplastic-disease"
                    ]
                },
                "modifierExtension": [
                    {
                        "url": "https://www.netzwerk-universitaetsmedizin.de/fhir/StructureDefinition/uncertainty-of-presence",
                        "valueCodeableConcept": {
                            "coding": [
                                {
                                    "system": "http://snomed.info/sct",
                                    "code": "261665006",
                                    "display": "Unknown (qualifier value)"
                                }
                            ],
                            "text": "Presence of condition is unknown."
                        }
                    }
                ],
                "category": [
                    {
                        "coding": [
                            {
                                "system": "http://snomed.info/sct",
                                "code": "394593009",
                                "display": "Medical oncology (qualifier value)"
                            }
                        ]
                    }
                ],
                "code": {
                    "coding": [
                        {
                            "system": "http://snomed.info/sct",
                            "code": "363346000",
                            "display": "Malignant neoplastic disease"
                        }
                    ]
                },
                "subject": {
                    "reference": "Patient/ef25d8db-ac93-47bb-b016-426f5b2c85b1"
                },
                "recordedDate": "2020-10-06"
            },
            "request": {
                "method": "POST",
                "url": "Condition"
            }
        },
        {
            "resource": {
                "resourceType": "Condition",
                "id": "c8acca90-00ba-4ff4-9dcd-0976a665ef99",
                "meta": {
                    "profile": [
                        "https://www.netzwerk-universitaetsmedizin.de/fhir/StructureDefinition/human-immunodeficiency-virus-infection"
                    ]
                },
                "modifierExtension": [
                    {
                        "url": "https://www.netzwerk-universitaetsmedizin.de/fhir/StructureDefinition/uncertainty-of-presence",
                        "valueCodeableConcept": {
                            "coding": [
                                {
                                    "system": "http://snomed.info/sct",
                                    "code": "261665006",
                                    "display": "Unknown (qualifier value)"
                                }
                            ],
                            "text": "Presence of condition is unknown."
                        }
                    }
                ],
                "category": [
                    {
                        "coding": [
                            {
                                "system": "http://snomed.info/sct",
                                "code": "394807007",
                                "display": "Infectious diseases (specialty)"
                            }
                        ]
                    }
                ],
                "code": {
                    "coding": [
                        {
                            "system": "http://snomed.info/sct",
                            "code": "86406008",
                            "display": "Human immunodeficiency virus infection"
                        }
                    ]
                },
                "subject": {
                    "reference": "Patient/ef25d8db-ac93-47bb-b016-426f5b2c85b1"
                },
                "recordedDate": "2020-10-06"
            },
            "request": {
                "method": "POST",
                "url": "Condition"
            }
        },
        {
            "resource": {
                "resourceType": "Observation",
                "id": "63e70e3f-99ea-4a47-beac-997f508306a5",
                "meta": {
                    "profile": [
                        "https://www.netzwerk-universitaetsmedizin.de/fhir/StructureDefinition/study-inclusion-covid-19"
                    ]
                },
                "identifier": [
                    {
                        "type": {
                            "coding": [
                                {
                                    "system": "http://terminology.hl7.org/CodeSystem/v2-0203",
                                    "code": "OBI"
                                }
                            ]
                        },
                        "system": "https://www.charite.de/fhir/CodeSystem/observation-identifiers",
                        "value": "ecrf_02_StudyInclusionCovid19",
                        "assigner": {
                            "reference": "Organization/Charit\u00e9"
                        }
                    }
                ],
                "status": "final",
                "category": [
                    {
                        "coding": [
                            {
                                "system": "http://terminology.hl7.org/CodeSystem/observation-category",
                                "code": "survey"
                            }
                        ]
                    }
                ],
                "code": {
                    "coding": [
                        {
                            "system": "https://www.netzwerk-universitaetsmedizin.de/fhir/CodeSystem/ecrf-parameter-codes",
                            "code": "02",
                            "display": "Study inclusion due to Covid-19"
                        }
                    ],
                    "text": "Confirmed Covid-19 diagnosis as main reason for enrolment in the study"
                },
                "subject": {
                    "reference": "Patient/ef25d8db-ac93-47bb-b016-426f5b2c85b1"
                },
                "effectiveDateTime": "2020-10-16T08:49:21+02:00",
                "valueCodeableConcept": {
                    "coding": [
                        {
                            "system": "http://snomed.info/sct",
                            "code": "373066001",
                            "display": "Yes (qualifier value)"
                        }
                    ],
                    "text": "Covid-19 as primary reason for study inclusion"
                }
            },
            "request": {
                "method": "POST",
                "url": "Observation"
            }
        },
        {
            "resource": {
                "resourceType": "Condition",
                "id": "018ed637-c0b3-4b6d-8b8f-e8686949cc7f",
                "meta": {
                    "profile": [
                        "https://www.netzwerk-universitaetsmedizin.de/fhir/StructureDefinition/diagnosis-covid-19"
                    ]
                },
                "clinicalStatus": {
                    "coding": [
                        {
                            "system": "http://terminology.hl7.org/CodeSystem/condition-clinical",
                            "code": "active",
                            "display": "Active"
                        }
                    ]
                },
                "verificationStatus": {
                    "coding": [
                        {
                            "system": "http://terminology.hl7.org/CodeSystem/condition-ver-status",
                            "code": "confirmed",
                            "display": "Confirmed"
                        },
                        {
                            "system": "http://snomed.info/sct",
                            "code": "410605003",
                            "display": "Confirmed present (qualifier value)"
                        }
                    ]
                },
                "category": [
                    {
                        "coding": [
                            {
                                "system": "http://snomed.info/sct",
                                "code": "394807007",
                                "display": "Infectious diseases (specialty) (qualifier value)"
                            }
                        ]
                    }
                ],
                "code": {
                    "coding": [
                        {
                            "system": "http://snomed.info/sct",
                            "code": "840539006",
                            "display": "Disease caused by Severe acute respiratory syndrome coronavirus 2 (disorder)"
                        }
                    ]
                },
                "subject": {
                    "reference": "Patient/ef25d8db-ac93-47bb-b016-426f5b2c85b1"
                },
                "recordedDate": "2020-10-23T12:48:23+02:00",
                "stage": [
                    {
                        "summary": {
                            "coding": [
                                {
                                    "system": "http://snomed.info/sct",
                                    "code": "24484000",
                                    "display": "Severe (severity modifier) (qualifier value)"
                                }
                            ],
                            "text": "Critical phase"
                        },
                        "type": {
                            "coding": [
                                {
                                    "system": "http://loinc.org",
                                    "code": "88859-4",
                                    "display": "Disease stage score for risk calculation"
                                }
                            ]
                        }
                    }
                ]
            },
            "request": {
                "method": "POST",
                "url": "Condition"
            }
        },
        {
            "resource": {
                "resourceType": "Observation",
                "id": "7297b0fd-3be7-4b88-a63a-6ba651152c41",
                "meta": {
                    "profile": [
                        "https://www.netzwerk-universitaetsmedizin.de/fhir/StructureDefinition/sars-cov-2-igg-ser-pl-ia-acnc"
                    ]
                },
                "identifier": [
                    {
                        "type": {
                            "coding": [
                                {
                                    "system": "http://terminology.hl7.org/CodeSystem/v2-0203",
                                    "code": "OBI"
                                }
                            ]
                        },
                        "system": "https://www.charite.de/fhir/CodeSystem/lab-identifiers",
                        "value": "94505-5_SARS-CoV-2-IgG-Qn",
                        "assigner": {
                            "reference": "Organization/Charit\u00e9"
                        }
                    }
                ],
                "status": "final",
                "category": [
                    {
                        "coding": [
                            {
                                "system": "http://loinc.org",
                                "code": "26436-6"
                            },
                            {
                                "system": "http://terminology.hl7.org/CodeSystem/observation-category",
                                "code": "laboratory"
                            }
                        ]
                    }
                ],
                "code": {
                    "coding": [
                        {
                            "system": "http://loinc.org",
                            "code": "94505-5",
                            "display": "SARS-CoV-2 (COVID-19) IgG Ab [Units/volume] in Serum or Plasma by Immunoassay"
                        }
                    ],
                    "text": "SARS-CoV-2 IgG antibodies quantitative"
                },
                "subject": {
                    "reference": "Patient/ef25d8db-ac93-47bb-b016-426f5b2c85b1"
                },
                "effectiveDateTime": "2020-10-19T08:43:33+02:00",
                "valueQuantity": {
                    "value": 20,
                    "unit": "[arb'U]/mL",
                    "system": "http://unitsofmeasure.org",
                    "code": "[arb'U]/mL"
                }
            },
            "request": {
                "method": "POST",
                "url": "Observation"
            }
        },
        {
            "resource": {
                "resourceType": "Observation",
                "id": "example-observation-frailty-score",
                "meta": {
                    "profile": [
                        "https://www.netzwerk-universitaetsmedizin.de/fhir/StructureDefinition/frailty-score"
                    ]
                },
                "status": "final",
                "category": [
                    {
                        "coding": [
                            {
                                "system": "http://terminology.hl7.org/CodeSystem/observation-category",
                                "code": "survey"
                            }
                        ]
                    }
                ],
                "code": {
                    "coding": [
                        {
                            "system": "http://snomed.info/sct",
                            "code": "763264000",
                            "display": "Canadian Study of Health and Aging Clinical Frailty Scale score"
                        }
                    ],
                    "text": "Frailty Scale Score"
                },
                "subject": {
                    "reference": "Patient/ef25d8db-ac93-47bb-b016-426f5b2c85b1"
                },
                "effectiveDateTime": "2020-06-16",
                "valueCodeableConcept": {
                    "coding": [
                        {
                            "system": "https://www.netzwerk-universitaetsmedizin.de/fhir/CodeSystem/frailty-score",
                            "code": "5",
                            "display": "Mildly Frail"
                        }
                    ]
                },
                "method": {
                    "coding": [
                        {
                            "system": "http://snomed.info/sct",
                            "code": "445414007",
                            "display": "Canadian Study of Health and Aging clinical frailty scale (assessment scale)"
                        }
                    ]
                }
            },
            "request": {
                "method": "POST",
                "url": "Observation"
            }
        },
        {
            "resource": {
                "resourceType": "MedicationStatement",
                "id": "f6ba1b3a-5416-49e5-81b5-6d95e1eac1b9",
                "meta": {
                    "profile": [
                        "https://www.netzwerk-universitaetsmedizin.de/fhir/StructureDefinition/pharmacological-therapy-anticoagulants"
                    ]
                },
                "status": "active",
                "medicationCodeableConcept": {
                    "coding": [
                        {
                            "system": "http://snomed.info/sct",
                            "code": "81839001",
                            "display": "Medicinal product acting as anticoagulant agent (product)"
                        },
                        {
                            "system": "http://fhir.de/CodeSystem/bfarm/atc",
                            "code": "B01AB01",
                            "display": "Heparin"
                        }
                    ],
                    "text": "Atazanavir"
                },
                "subject": {
                    "reference": "Patient/ef25d8db-ac93-47bb-b016-426f5b2c85b1"
                },
                "effectiveDateTime": "2020-10-19T08:43:33+02:00",
                "reasonCode": [
                    {
                        "coding": [
                            {
                                "system": "http://snomed.info/sct",
                                "code": "360271000",
                                "display": "Prophylaxis - procedure intent (qualifier value)"
                            }
                        ]
                    }
                ]
            },
            "request": {
                "method": "POST",
                "url": "MedicationStatement"
            }
        },
        {
            "resource": {
                "resourceType": "DiagnosticReport",
                "id": "29cd7bc6-2b7b-44b9-8242-3d05fabd3e6a",
                "meta": {
                    "profile": [
                        "https://www.netzwerk-universitaetsmedizin.de/fhir/StructureDefinition/diagnostic-report-radiology"
                    ]
                },
                "status": "final",
                "category": [
                    {
                        "coding": [
                            {
                                "system": "http://loinc.org",
                                "code": "18726-0",
                                "display": "Radiology studies (set)"
                            },
                            {
                                "system": "http://terminology.hl7.org/CodeSystem/v2-0074",
                                "code": "RAD",
                                "display": "Radiology"
                            }
                        ]
                    }
                ],
                "code": {
                    "coding": [
                        {
                            "system": "http://loinc.org",
                            "code": "18748-4",
                            "display": "Diagnostic imaging study"
                        }
                    ]
                },
                "subject": {
                    "reference": "Patient/ef25d8db-ac93-47bb-b016-426f5b2c85b1"
                },
                "effectiveDateTime": "2020-09-30",
                "conclusion": "Unspezifischer Befund",
                "conclusionCode": [
                    {
                        "coding": [
                            {
                                "system": "http://snomed.info/sct",
                                "code": "118247008:{363713009=373068000}",
                                "display": "|Radiologic finding (finding)|:|Has interpretation (attribute)|=|Undetermined (qualifier value)|"
                            }
                        ]
                    }
                ]
            },
            "request": {
                "method": "POST",
                "url": "DiagnosticReport"
            }
        },
        {
            "resource": {
                "resourceType": "Observation",
                "id": "162918dc-dc70-4767-a6d5-34c7d67e280a",
                "meta": {
                    "profile": [
                        "https://www.netzwerk-universitaetsmedizin.de/fhir/StructureDefinition/body-temperature"
                    ]
                },
                "identifier": [
                    {
                        "type": {
                            "coding": [
                                {
                                    "system": "http://terminology.hl7.org/CodeSystem/v2-0203",
                                    "code": "OBI"
                                }
                            ]
                        },
                        "system": "https://www.charite.de/fhir/CodeSystem/observation-identifiers",
                        "value": "8310-5_BodyTemperature",
                        "assigner": {
                            "reference": "Organization/Charit\u00e9"
                        }
                    }
                ],
                "status": "final",
                "category": [
                    {
                        "coding": [
                            {
                                "system": "http://terminology.hl7.org/CodeSystem/observation-category",
                                "code": "vital-signs"
                            }
                        ]
                    }
                ],
                "code": {
                    "coding": [
                        {
                            "system": "http://loinc.org",
                            "code": "8310-5",
                            "display": "Body temperature"
                        },
                        {
                            "system": "http://snomed.info/sct",
                            "code": "386725007",
                            "display": "Body temperature (observable entity)"
                        }
                    ],
                    "text": "Body temperature"
                },
                "subject": {
                    "reference": "Patient/ef25d8db-ac93-47bb-b016-426f5b2c85b1"
                },
                "effectiveDateTime": "2020-09-25",
                "valueQuantity": {
                    "value": 36.8,
                    "unit": "\u00b0C",
                    "system": "http://unitsofmeasure.org",
                    "code": "Cel"
                }
            },
            "request": {
                "method": "POST",
                "url": "Observation"
            }
        },
        {
            "resource": {
                "resourceType": "Procedure",
                "id": "9e5567a1-994e-4100-8945-4e27e21edfd2",
                "meta": {
                    "profile": [
                        "https://www.netzwerk-universitaetsmedizin.de/fhir/StructureDefinition/respiratory-therapies"
                    ]
                },
                "status": "not-done",
                "category": {
                    "coding": [
                        {
                            "system": "http://snomed.info/sct",
                            "code": "277132007",
                            "display": "Therapeutic procedure (procedure)"
                        }
                    ]
                },
                "code": {
                    "coding": [
                        {
                            "system": "http://snomed.info/sct",
                            "code": "40617009",
                            "display": "Artificial respiration (procedure)"
                        }
                    ],
                    "text": "Artificial respiration"
                },
                "subject": {
                    "reference": "Patient/ef25d8db-ac93-47bb-b016-426f5b2c85b1"
                },
                "_performedDateTime": {
                    "extension": [
                        {
                            "url": "http://hl7.org/fhir/StructureDefinition/data-absent-reason",
                            "valueCode": "unknown"
                        }
                    ]
                }
            },
            "request": {
                "method": "POST",
                "url": "Procedure"
            }
        },
        {
            "resource": {
                "resourceType": "Observation",
                "id": "80ac4908-3637-476d-a416-9ab7ed7474e6",
                "meta": {
                    "profile": [
                        "https://www.netzwerk-universitaetsmedizin.de/fhir/StructureDefinition/body-weight"
                    ]
                },
                "identifier": [
                    {
                        "type": {
                            "coding": [
                                {
                                    "system": "http://terminology.hl7.org/CodeSystem/v2-0203",
                                    "code": "OBI"
                                }
                            ]
                        },
                        "system": "https://www.charite.de/fhir/CodeSystem/observation-identifiers",
                        "value": "29463-7_BodyWeight",
                        "assigner": {
                            "reference": "Organization/Charit\u00e9"
                        }
                    }
                ],
                "status": "final",
                "category": [
                    {
                        "coding": [
                            {
                                "system": "http://terminology.hl7.org/CodeSystem/observation-category",
                                "code": "vital-signs"
                            }
                        ]
                    }
                ],
                "code": {
                    "coding": [
                        {
                            "system": "http://loinc.org",
                            "code": "29463-7",
                            "display": "Body weight"
                        },
                        {
                            "system": "http://snomed.info/sct",
                            "code": "27113001",
                            "display": "Body weight (observable entity)"
                        }
                    ],
                    "text": "Body weight"
                },
                "subject": {
                    "reference": "Patient/ef25d8db-ac93-47bb-b016-426f5b2c85b1"
                },
                "effectiveDateTime": "2020-10-02",
                "valueQuantity": {
                    "value": 84,
                    "unit": "kilogram",
                    "system": "http://unitsofmeasure.org",
                    "code": "kg"
                }
            },
            "request": {
                "method": "POST",
                "url": "Observation"
            }
        },
        {
            "resource": {
                "resourceType": "Observation",
                "id": "ce01e111-da00-438e-8584-0d14000a5388",
                "meta": {
                    "profile": [
                        "https://www.netzwerk-universitaetsmedizin.de/fhir/StructureDefinition/patient-in-icu"
                    ]
                },
                "status": "final",
                "category": [
                    {
                        "coding": [
                            {
                                "system": "http://terminology.hl7.org/CodeSystem/observation-category",
                                "code": "survey",
                                "display": "Survey"
                            }
                        ]
                    }
                ],
                "code": {
                    "coding": [
                        {
                            "system": "http://loinc.org",
                            "code": "95420-6",
                            "display": "Whether the patient was admitted to intensive care unit (ICU) for condition of interest"
                        }
                    ]
                },
                "subject": {
                    "reference": "Patient/ef25d8db-ac93-47bb-b016-426f5b2c85b1"
                },
                "effectiveDateTime": "2020-10-14",
                "valueCodeableConcept": {
                    "coding": [
                        {
                            "system": "http://snomed.info/sct",
                            "code": "261665006",
                            "display": "Unknown (qualifier value)"
                        }
                    ]
                }
            },
            "request": {
                "method": "POST",
                "url": "Observation"
            }
        },
        {
            "resource": {
                "resourceType": "Observation",
                "id": "a0897b04-2e57-43a7-9372-3c1f6a2fef1c",
                "meta": {
                    "profile": [
                        "https://www.netzwerk-universitaetsmedizin.de/fhir/StructureDefinition/respiratory-rate"
                    ]
                },
                "identifier": [
                    {
                        "type": {
                            "coding": [
                                {
                                    "system": "http://terminology.hl7.org/CodeSystem/v2-0203",
                                    "code": "OBI"
                                }
                            ]
                        },
                        "system": "https://www.charite.de/fhir/CodeSystem/observation-identifiers",
                        "value": "9279-1_RespiratoryRate",
                        "assigner": {
                            "reference": "Organization/Charit\u00e9"
                        }
                    }
                ],
                "status": "final",
                "category": [
                    {
                        "coding": [
                            {
                                "system": "http://terminology.hl7.org/CodeSystem/observation-category",
                                "code": "vital-signs"
                            }
                        ]
                    }
                ],
                "code": {
                    "coding": [
                        {
                            "system": "http://loinc.org",
                            "code": "9279-1",
                            "display": "Respiratory rate"
                        },
                        {
                            "system": "http://snomed.info/sct",
                            "code": "86290005",
                            "display": "Respiratory rate (observable entity)"
                        }
                    ],
                    "text": "Respiratory rate"
                },
                "subject": {
                    "reference": "Patient/ef25d8db-ac93-47bb-b016-426f5b2c85b1"
                },
                "effectiveDateTime": "2020-09-25",
                "valueQuantity": {
                    "value": 22,
                    "unit": "per minute",
                    "system": "http://unitsofmeasure.org",
                    "code": "/min"
                }
            },
            "request": {
                "method": "POST",
                "url": "Observation"
            }
        },
        {
            "resource": {
                "resourceType": "Observation",
                "id": "b266ff11-b47b-4223-8ef2-67e2a408ee6f",
                "meta": {
                    "profile": [
                        "https://www.netzwerk-universitaetsmedizin.de/fhir/StructureDefinition/known-exposure"
                    ]
                },
                "identifier": [
                    {
                        "type": {
                            "coding": [
                                {
                                    "system": "http://terminology.hl7.org/CodeSystem/v2-0203",
                                    "code": "OBI"
                                }
                            ]
                        },
                        "system": "https://www.charite.de/fhir/CodeSystem/observation-identifiers",
                        "value": "88636-6_KnownExposure",
                        "assigner": {
                            "reference": "Organization/Charit\u00e9"
                        }
                    }
                ],
                "status": "final",
                "category": [
                    {
                        "coding": [
                            {
                                "system": "http://terminology.hl7.org/CodeSystem/observation-category",
                                "code": "social-history"
                            }
                        ]
                    }
                ],
                "code": {
                    "coding": [
                        {
                            "system": "http://loinc.org",
                            "code": "88636-6",
                            "display": "Known exposure [Identifier]"
                        }
                    ],
                    "text": "Known exposure"
                },
                "subject": {
                    "reference": "Patient/ef25d8db-ac93-47bb-b016-426f5b2c85b1"
                },
                "effectiveDateTime": "2020-10-04",
                "dataAbsentReason": {
                    "coding": [
                        {
                            "system": "http://terminology.hl7.org/CodeSystem/data-absent-reason",
                            "code": "unknown",
                            "display": "Unknown"
                        }
                    ]
                }
            },
            "request": {
                "method": "POST",
                "url": "Observation"
            }
        },
        {
            "resource": {
                "resourceType": "Observation",
                "id": "e39a18a6-63d7-4117-a38e-1f29be15f6fa",
                "meta": {
                    "profile": [
                        "https://www.netzwerk-universitaetsmedizin.de/fhir/StructureDefinition/oxygen-partial-pressure"
                    ]
                },
                "identifier": [
                    {
                        "type": {
                            "coding": [
                                {
                                    "system": "http://terminology.hl7.org/CodeSystem/v2-0203",
                                    "code": "OBI"
                                }
                            ]
                        },
                        "system": "https://www.charite.de/fhir/CodeSystem/lab-identifiers",
                        "value": "2703-7_paO2",
                        "assigner": {
                            "reference": "Organization/Charit\u00e9"
                        }
                    }
                ],
                "status": "final",
                "category": [
                    {
                        "coding": [
                            {
                                "system": "http://loinc.org",
                                "code": "26436-6"
                            },
                            {
                                "system": "http://terminology.hl7.org/CodeSystem/observation-category",
                                "code": "laboratory"
                            },
                            {
                                "system": "http://loinc.org",
                                "code": "18767-4"
                            }
                        ]
                    }
                ],
                "code": {
                    "coding": [
                        {
                            "system": "http://loinc.org",
                            "code": "2703-7",
                            "display": "Oxygen [Partial pressure] in Arterial blood"
                        }
                    ],
                    "text": "Oxygen [Partial pressure] in Arterial blood"
                },
                "subject": {
                    "reference": "Patient/ef25d8db-ac93-47bb-b016-426f5b2c85b1"
                },
                "effectiveDateTime": "2020-09-21",
                "valueQuantity": {
                    "value": 67,
                    "unit": "mmHg",
                    "system": "http://unitsofmeasure.org",
                    "code": "mm[Hg]"
                }
            },
            "request": {
                "method": "POST",
                "url": "Observation"
            }
        },
        {
            "resource": {
                "resourceType": "Observation",
                "id": "ac8b697d-7088-4fbe-9ece-51df2d3f1e04",
                "meta": {
                    "profile": [
                        "https://www.netzwerk-universitaetsmedizin.de/fhir/StructureDefinition/pH"
                    ]
                },
                "identifier": [
                    {
                        "type": {
                            "coding": [
                                {
                                    "system": "http://terminology.hl7.org/CodeSystem/v2-0203",
                                    "code": "OBI"
                                }
                            ]
                        },
                        "system": "https://www.charite.de/fhir/CodeSystem/lab-identifiers",
                        "value": "2744-1_pH",
                        "assigner": {
                            "reference": "Organization/Charit\u00e9"
                        }
                    }
                ],
                "status": "final",
                "category": [
                    {
                        "coding": [
                            {
                                "system": "http://loinc.org",
                                "code": "26436-6"
                            },
                            {
                                "system": "http://terminology.hl7.org/CodeSystem/observation-category",
                                "code": "laboratory"
                            },
                            {
                                "system": "http://loinc.org",
                                "code": "18767-4"
                            }
                        ]
                    }
                ],
                "code": {
                    "coding": [
                        {
                            "system": "http://loinc.org",
                            "code": "2744-1",
                            "display": "pH of Arterial blood"
                        }
                    ],
                    "text": "pH of Arterial blood"
                },
                "subject": {
                    "reference": "Patient/ef25d8db-ac93-47bb-b016-426f5b2c85b1"
                },
                "effectiveDateTime": "2020-09-21",
                "valueQuantity": {
                    "value": 7.4,
                    "unit": "pH",
                    "system": "http://unitsofmeasure.org",
                    "code": "[pH]"
                }
            },
            "request": {
                "method": "POST",
                "url": "Observation"
            }
        },
        {
            "resource": {
                "resourceType": "Procedure",
                "id": "ccbf6e11-aa1c-497b-8b4c-da00cdf8dd70",
                "meta": {
                    "profile": [
                        "https://www.netzwerk-universitaetsmedizin.de/fhir/StructureDefinition/prone-position"
                    ]
                },
                "status": "completed",
                "category": {
                    "coding": [
                        {
                            "system": "http://snomed.info/sct",
                            "code": "225287004",
                            "display": "Procedures relating to positioning and support (procedure)"
                        }
                    ]
                },
                "code": {
                    "coding": [
                        {
                            "system": "http://snomed.info/sct",
                            "code": "431182000",
                            "display": "Placing subject in prone position (procedure)"
                        }
                    ],
                    "text": "Prone position"
                },
                "subject": {
                    "reference": "Patient/ef25d8db-ac93-47bb-b016-426f5b2c85b1"
                },
                "_performedDateTime": {
                    "extension": [
                        {
                            "url": "http://hl7.org/fhir/StructureDefinition/data-absent-reason",
                            "valueCode": "unknown"
                        }
                    ]
                }
            },
            "request": {
                "method": "POST",
                "url": "Procedure"
            }
        },
        {
            "resource": {
                "resourceType": "MedicationStatement",
                "id": "a5cfc927-ba0e-4215-a4a2-536528962fe9",
                "meta": {
                    "profile": [
                        "https://www.netzwerk-universitaetsmedizin.de/fhir/StructureDefinition/pharmacological-therapy-immunoglobulins"
                    ]
                },
                "status": "active",
                "medicationCodeableConcept": {
                    "coding": [
                        {
                            "system": "http://snomed.info/sct",
                            "code": "333710000",
                            "display": "Product containing immunoglobulin (product)"
                        },
                        {
                            "system": "http://fhir.de/CodeSystem/bfarm/atc",
                            "code": "J06B",
                            "display": "IMMUNGLOBULINE"
                        }
                    ],
                    "text": "immunoglobulins"
                },
                "subject": {
                    "reference": "Patient/ef25d8db-ac93-47bb-b016-426f5b2c85b1"
                },
                "effectiveDateTime": "2020-10-19T08:43:33+02:00"
            },
            "request": {
                "method": "POST",
                "url": "MedicationStatement"
            }
        },
        {
            "resource": {
                "resourceType": "Condition",
                "id": "1aa31c13-5c16-4b71-8bec-db51d0d1eb86",
                "meta": {
                    "profile": [
                        "https://www.netzwerk-universitaetsmedizin.de/fhir/StructureDefinition/chronic-lung-diseases"
                    ]
                },
                "verificationStatus": {
                    "coding": [
                        {
                            "system": "http://terminology.hl7.org/CodeSystem/condition-ver-status",
                            "code": "refuted",
                            "display": "Refuted"
                        },
                        {
                            "system": "http://snomed.info/sct",
                            "code": "410594000",
                            "display": "Definitely NOT present (qualifier value)"
                        }
                    ]
                },
                "category": [
                    {
                        "coding": [
                            {
                                "system": "http://snomed.info/sct",
                                "code": "418112009",
                                "display": "Pulmonary medicine"
                            }
                        ]
                    }
                ],
                "code": {
                    "coding": [
                        {
                            "system": "http://snomed.info/sct",
                            "code": "190905008",
                            "display": "Cystic fibrosis"
                        }
                    ]
                },
                "subject": {
                    "reference": "Patient/ef25d8db-ac93-47bb-b016-426f5b2c85b1"
                },
                "recordedDate": "2020-10-06"
            },
            "request": {
                "method": "POST",
                "url": "Condition"
            }
        },
        {
            "resource": {
                "resourceType": "Condition",
                "id": "9111f9c9-3419-43e5-8e89-c5c258a31b06",
                "meta": {
                    "profile": [
                        "https://www.netzwerk-universitaetsmedizin.de/fhir/StructureDefinition/gastrointestinal-ulcers"
                    ]
                },
                "modifierExtension": [
                    {
                        "url": "https://www.netzwerk-universitaetsmedizin.de/fhir/StructureDefinition/uncertainty-of-presence",
                        "valueCodeableConcept": {
                            "coding": [
                                {
                                    "system": "http://snomed.info/sct",
                                    "code": "261665006",
                                    "display": "Unknown (qualifier value)"
                                }
                            ],
                            "text": "Presence of condition is unknown."
                        }
                    }
                ],
                "category": [
                    {
                        "coding": [
                            {
                                "system": "http://snomed.info/sct",
                                "code": "394584008",
                                "display": "Gastroenterology"
                            }
                        ]
                    }
                ],
                "code": {
                    "coding": [
                        {
                            "system": "http://snomed.info/sct",
                            "code": "40845000",
                            "display": "Gastrointestinal ulcer"
                        }
                    ]
                },
                "subject": {
                    "reference": "Patient/ef25d8db-ac93-47bb-b016-426f5b2c85b1"
                },
                "recordedDate": "2020-10-06"
            },
            "request": {
                "method": "POST",
                "url": "Condition"
            }
        },
        {
            "resource": {
                "resourceType": "Observation",
                "id": "6a78560b-2f7c-4af5-a7bc-3c7d62ca8458",
                "meta": {
                    "profile": [
                        "https://www.netzwerk-universitaetsmedizin.de/fhir/StructureDefinition/carbon-dioxide-partial-pressure"
                    ]
                },
                "identifier": [
                    {
                        "type": {
                            "coding": [
                                {
                                    "system": "http://terminology.hl7.org/CodeSystem/v2-0203",
                                    "code": "OBI"
                                }
                            ]
                        },
                        "system": "https://www.charite.de/fhir/CodeSystem/lab-identifiers",
                        "value": "2019-8_paCO2",
                        "assigner": {
                            "reference": "Organization/Charit\u00e9"
                        }
                    }
                ],
                "status": "final",
                "category": [
                    {
                        "coding": [
                            {
                                "system": "http://loinc.org",
                                "code": "26436-6"
                            },
                            {
                                "system": "http://terminology.hl7.org/CodeSystem/observation-category",
                                "code": "laboratory"
                            },
                            {
                                "system": "http://loinc.org",
                                "code": "18767-4"
                            }
                        ]
                    }
                ],
                "code": {
                    "coding": [
                        {
                            "system": "http://loinc.org",
                            "code": "2019-8",
                            "display": "Carbon dioxide [Partial pressure] in Arterial blood"
                        }
                    ],
                    "text": "Carbon dioxide [Partial pressure] in Arterial blood"
                },
                "subject": {
                    "reference": "Patient/ef25d8db-ac93-47bb-b016-426f5b2c85b1"
                },
                "effectiveDateTime": "2020-09-21",
                "valueQuantity": {
                    "value": 44,
                    "unit": "mmHg",
                    "system": "http://unitsofmeasure.org",
                    "code": "mm[Hg]"
                }
            },
            "request": {
                "method": "POST",
                "url": "Observation"
            }
        },
        {
            "resource": {
                "resourceType": "MedicationStatement",
                "id": "a85311b0-0489-484f-8ee2-1d6257299ded",
                "meta": {
                    "profile": [
                        "https://www.netzwerk-universitaetsmedizin.de/fhir/StructureDefinition/pharmacological-therapy"
                    ]
                },
                "status": "active",
                "medicationCodeableConcept": {
                    "coding": [
                        {
                            "system": "http://snomed.info/sct",
                            "code": "413591007",
                            "display": "Product containing atazanavir (medicinal product)"
                        },
                        {
                            "system": "http://fhir.de/CodeSystem/bfarm/atc",
                            "code": "J05AE08",
                            "display": "Atazanavir"
                        }
                    ],
                    "text": "Atazanavir"
                },
                "subject": {
                    "reference": "Patient/ef25d8db-ac93-47bb-b016-426f5b2c85b1"
                },
                "effectiveDateTime": "2020-10-19T08:43:33+02:00"
            },
            "request": {
                "method": "POST",
                "url": "MedicationStatement"
            }
        },
        {
            "resource": {
                "resourceType": "Condition",
                "id": "5efb91a2-c550-42de-b3b9-0394dff468b2",
                "meta": {
                    "profile": [
                        "https://www.netzwerk-universitaetsmedizin.de/fhir/StructureDefinition/dependence-on-ventilator"
                    ]
                },
                "verificationStatus": {
                    "coding": [
                        {
                            "system": "http://terminology.hl7.org/CodeSystem/condition-ver-status",
                            "code": "refuted",
                            "display": "Refuted"
                        },
                        {
                            "system": "http://snomed.info/sct",
                            "code": "410594000",
                            "display": "Definitely NOT present (qualifier value)"
                        }
                    ]
                },
                "category": [
                    {
                        "coding": [
                            {
                                "system": "http://snomed.info/sct",
                                "code": "404989005",
                                "display": "Ventilation status (observable entity)"
                            }
                        ]
                    }
                ],
                "code": {
                    "coding": [
                        {
                            "system": "http://snomed.info/sct",
                            "code": "444932008",
                            "display": "Dependence on ventilator (finding)"
                        }
                    ]
                },
                "subject": {
                    "reference": "Patient/ef25d8db-ac93-47bb-b016-426f5b2c85b1"
                },
                "recordedDate": "2020-10-16T08:49:21+02:00"
            },
            "request": {
                "method": "POST",
                "url": "Condition"
            }
        },
        {
            "resource": {
                "resourceType": "Observation",
                "id": "f35f17da-f642-402d-8cf4-ff70607713a7",
                "meta": {
                    "profile": [
                        "https://www.netzwerk-universitaetsmedizin.de/fhir/StructureDefinition/sars-cov-2-iga-ser-pl-ql-ia"
                    ]
                },
                "identifier": [
                    {
                        "type": {
                            "coding": [
                                {
                                    "system": "http://terminology.hl7.org/CodeSystem/v2-0203",
                                    "code": "OBI"
                                }
                            ]
                        },
                        "system": "https://www.charite.de/fhir/CodeSystem/lab-identifiers",
                        "value": "94562-6_SARS-CoV-2-IgA-Ql",
                        "assigner": {
                            "reference": "Organization/Charit\u00e9"
                        }
                    }
                ],
                "status": "final",
                "category": [
                    {
                        "coding": [
                            {
                                "system": "http://loinc.org",
                                "code": "26436-6"
                            },
                            {
                                "system": "http://terminology.hl7.org/CodeSystem/observation-category",
                                "code": "laboratory"
                            }
                        ]
                    }
                ],
                "code": {
                    "coding": [
                        {
                            "system": "http://loinc.org",
                            "code": "94562-6",
                            "display": "SARS-CoV-2 (COVID-19) IgA Ab [Presence] in Serum or Plasma by Immunoassay"
                        }
                    ],
                    "text": "SARS-CoV-2 IgA antibodies qualitative"
                },
                "subject": {
                    "reference": "Patient/ef25d8db-ac93-47bb-b016-426f5b2c85b1"
                },
                "effectiveDateTime": "2020-10-19T08:43:33+02:00",
                "valueCodeableConcept": {
                    "coding": [
                        {
                            "system": "http://snomed.info/sct",
                            "code": "260373001",
                            "display": "Detected (qualifier value)"
                        }
                    ]
                }
            },
            "request": {
                "method": "POST",
                "url": "Observation"
            }
        },
        {
            "resource": {
                "resourceType": "Condition",
                "id": "719c51ba-3692-40ce-a13f-82c89f5b930c",
                "meta": {
                    "profile": [
                        "https://www.netzwerk-universitaetsmedizin.de/fhir/StructureDefinition/chronic-liver-diseases"
                    ]
                },
                "clinicalStatus": {
                    "coding": [
                        {
                            "system": "http://terminology.hl7.org/CodeSystem/condition-clinical",
                            "code": "active",
                            "display": "Active"
                        }
                    ]
                },
                "verificationStatus": {
                    "coding": [
                        {
                            "system": "http://terminology.hl7.org/CodeSystem/condition-ver-status",
                            "code": "confirmed",
                            "display": "Confirmed"
                        },
                        {
                            "system": "http://snomed.info/sct",
                            "code": "410605003",
                            "display": "Confirmed present (qualifier value)"
                        }
                    ]
                },
                "category": [
                    {
                        "coding": [
                            {
                                "system": "http://snomed.info/sct",
                                "code": "408472002",
                                "display": "Hepatology"
                            }
                        ]
                    }
                ],
                "code": {
                    "coding": [
                        {
                            "system": "http://snomed.info/sct",
                            "code": "197321007",
                            "display": "Steatosis of liver"
                        }
                    ]
                },
                "subject": {
                    "reference": "Patient/ef25d8db-ac93-47bb-b016-426f5b2c85b1"
                },
                "recordedDate": "2020-10-06"
            },
            "request": {
                "method": "POST",
                "url": "Condition"
            }
        },
        {
            "resource": {
                "resourceType": "Observation",
                "id": "c9f96dd3-a77a-4aa9-9b12-43cd1972d9a4",
                "meta": {
                    "profile": [
                        "https://www.netzwerk-universitaetsmedizin.de/fhir/StructureDefinition/inhaled-oxygen-concentration"
                    ]
                },
                "identifier": [
                    {
                        "type": {
                            "coding": [
                                {
                                    "system": "http://terminology.hl7.org/CodeSystem/v2-0203",
                                    "code": "OBI"
                                }
                            ]
                        },
                        "system": "https://www.charite.de/fhir/CodeSystem/lab-identifiers",
                        "value": "3150-0_FiO2",
                        "assigner": {
                            "reference": "Organization/Charit\u00e9"
                        }
                    }
                ],
                "status": "final",
                "category": [
                    {
                        "coding": [
                            {
                                "system": "http://loinc.org",
                                "code": "26436-6"
                            },
                            {
                                "system": "http://terminology.hl7.org/CodeSystem/observation-category",
                                "code": "laboratory"
                            },
                            {
                                "system": "http://loinc.org",
                                "code": "18767-4"
                            }
                        ]
                    }
                ],
                "code": {
                    "coding": [
                        {
                            "system": "http://loinc.org",
                            "code": "3150-0",
                            "display": "Inhaled oxygen concentration"
                        }
                    ],
                    "text": "Inhaled oxygen concentration"
                },
                "subject": {
                    "reference": "Patient/ef25d8db-ac93-47bb-b016-426f5b2c85b1"
                },
                "effectiveDateTime": "2020-09-21",
                "valueQuantity": {
                    "value": 21,
                    "unit": "%",
                    "system": "http://unitsofmeasure.org",
                    "code": "%"
                }
            },
            "request": {
                "method": "POST",
                "url": "Observation"
            }
        },
        {
            "resource": {
                "resourceType": "Observation",
                "id": "220767b9-5760-40b8-8741-8772dae04c3f",
                "meta": {
                    "profile": [
                        "https://www.netzwerk-universitaetsmedizin.de/fhir/StructureDefinition/sars-cov-2-ab-pnl-ser-pl-ia"
                    ]
                },
                "identifier": [
                    {
                        "type": {
                            "coding": [
                                {
                                    "system": "http://terminology.hl7.org/CodeSystem/v2-0203",
                                    "code": "OBI"
                                }
                            ]
                        },
                        "system": "https://www.charite.de/fhir/CodeSystem/lab-identifiers",
                        "value": "94504-8_SARS-CoV-2-Ab-Panel",
                        "assigner": {
                            "reference": "Organization/Charit\u00e9"
                        }
                    }
                ],
                "status": "final",
                "category": [
                    {
                        "coding": [
                            {
                                "system": "http://loinc.org",
                                "code": "26436-6"
                            },
                            {
                                "system": "http://terminology.hl7.org/CodeSystem/observation-category",
                                "code": "laboratory"
                            }
                        ]
                    }
                ],
                "code": {
                    "coding": [
                        {
                            "system": "http://loinc.org",
                            "code": "94504-8",
                            "display": "SARS-CoV-2 (COVID-19) Ab panel - Serum or Plasma by Immunoassay"
                        }
                    ],
                    "text": "SARS-CoV-2 antibodies panel"
                },
                "subject": {
                    "reference": "Patient/ef25d8db-ac93-47bb-b016-426f5b2c85b1"
                },
                "effectiveDateTime": "2020-10-19T08:43:33+02:00",
                "hasMember": [
                    {
                        "reference": "Observation/22732de8-3eb6-477e-81d6-28fb906b3e4e"
                    },
                    {
                        "reference": "Observation/70ca7d00-0d8b-42bb-9508-a8fc76e5c7ad"
                    },
                    {
                        "reference": "Observation/7e746710-fad4-474b-8a28-422863f3a2b8"
                    },
                    {
                        "reference": "Observation/f35f17da-f642-402d-8cf4-ff70607713a7"
                    },
                    {
                        "reference": "Observation/7297b0fd-3be7-4b88-a63a-6ba651152c41"
                    },
                    {
                        "reference": "Observation/da1fa3fe-a8a3-44b6-94c6-3497269436ec"
                    },
                    {
                        "reference": "Observation/b5adbc53-a1ee-4a57-9ede-fae4b4462bfb"
                    },
                    {
                        "reference": "Observation/b08b1687-2ea1-4b14-9473-dd04389169ec"
                    }
                ]
            },
            "request": {
                "method": "POST",
                "url": "Observation"
            }
        }
    ]
}