{
    "resourceType": "Bundle",
    "id": "8b098850-2666-4dba-a288-2b2aa12dbce3",
    "meta": {
        "profile": [
            "https://www.netzwerk-universitaetsmedizin.de/fhir/StructureDefinition/gecco-bundle"
        ]
    },
    "type": "transaction",
    "timestamp": "2022-07-29T00:59:04Z",
    "entry": [
        {
            "resource": {
                "resourceType": "Condition",
                "id": "540c7ce3-752c-4565-821b-fecce54b77d6",
                "meta": {
                    "profile": [
                        "https://www.netzwerk-universitaetsmedizin.de/fhir/StructureDefinition/malignant-neoplastic-disease"
                    ]
                },
                "clinicalStatus": {
                    "coding": [
                        {
                            "system": "http://terminology.hl7.org/CodeSystem/condition-clinical",
                            "code": "active",
                            "display": "Active"
                        }
                    ]
                },
                "verificationStatus": {
                    "coding": [
                        {
                            "system": "http://terminology.hl7.org/CodeSystem/condition-ver-status",
                            "code": "confirmed",
                            "display": "Confirmed"
                        },
                        {
                            "system": "http://snomed.info/sct",
                            "code": "410605003",
                            "display": "Confirmed present (qualifier value)"
                        }
                    ]
                },
                "category": [
                    {
                        "coding": [
                            {
                                "system": "http://snomed.info/sct",
                                "code": "394593009",
                                "display": "Medical oncology (qualifier value)"
                            }
                        ]
                    }
                ],
                "code": {
                    "coding": [
                        {
                            "system": "http://snomed.info/sct",
                            "code": "363346000",
                            "display": "Malignant neoplastic disease"
                        }
                    ]
                },
                "subject": {
                    "reference": "Patient/0b3937f8-5186-4608-aa4a-6346f6183de6"
                },
                "recordedDate": "2020-10-06"
            },
            "request": {
                "method": "POST",
                "url": "Condition"
            }
        },
        {
            "resource": {
                "resourceType": "Observation",
                "id": "607eb4e3-65ac-4ff9-b67c-20ffa7699555",
                "meta": {
                    "profile": [
                        "https://www.netzwerk-universitaetsmedizin.de/fhir/StructureDefinition/history-of-travel"
                    ]
                },
                "identifier": [
                    {
                        "type": {
                            "coding": [
                                {
                                    "system": "http://terminology.hl7.org/CodeSystem/v2-0203",
                                    "code": "OBI"
                                }
                            ]
                        },
                        "system": "https://www.charite.de/fhir/CodeSystem/observation-identifiers",
                        "value": "8691-8_HistoryOfTravel",
                        "assigner": {
                            "reference": "Organization/Charit\u00e9"
                        }
                    }
                ],
                "status": "final",
                "category": [
                    {
                        "coding": [
                            {
                                "system": "http://terminology.hl7.org/CodeSystem/observation-category",
                                "code": "social-history"
                            }
                        ]
                    }
                ],
                "code": {
                    "coding": [
                        {
                            "system": "http://loinc.org",
                            "code": "8691-8",
                            "display": "History of Travel"
                        },
                        {
                            "system": "http://snomed.info/sct",
                            "code": "443846001",
                            "display": "Detail of history of travel (observable entity)"
                        }
                    ],
                    "text": "History of travel"
                },
                "subject": {
                    "reference": "Patient/0b3937f8-5186-4608-aa4a-6346f6183de6"
                },
                "effectiveDateTime": "2020-09-28",
                "valueCodeableConcept": {
                    "coding": [
                        {
                            "code": "373066001",
                            "display": "Yes (qualifier value)",
                            "system": "http://snomed.info/sct"
                        }
                    ]
                },
                "component": [
                    {
                        "code": {
                            "coding": [
                                {
                                    "system": "http://loinc.org",
                                    "code": "82752-7",
                                    "display": "Date travel started"
                                }
                            ],
                            "text": "Travel start date"
                        },
                        "valueDateTime": "2020-09-17"
                    },
                    {
                        "code": {
                            "coding": [
                                {
                                    "system": "http://loinc.org",
                                    "code": "94651-7",
                                    "display": "Country of travel"
                                }
                            ],
                            "text": "Country of travel"
                        },
                        "valueCodeableConcept": {
                            "coding": [
                                {
                                    "system": "urn:iso:std:iso:3166",
                                    "code": "DE",
                                    "display": "Germany"
                                }
                            ],
                            "text": "Germany"
                        }
                    },
                    {
                        "code": {
                            "coding": [
                                {
                                    "system": "http://loinc.org",
                                    "code": "82754-3",
                                    "display": "State of travel"
                                }
                            ],
                            "text": "State of travel"
                        },
                        "valueCodeableConcept": {
                            "coding": [
                                {
                                    "system": "urn:iso:std:iso:3166-2:de",
                                    "code": "DE-NW",
                                    "display": "Nordrhein-Westfalen"
                                }
                            ],
                            "text": "Nordrhein-Westfalen"
                        }
                    },
                    {
                        "code": {
                            "coding": [
                                {
                                    "system": "http://loinc.org",
                                    "code": "94653-3",
                                    "display": "City of travel"
                                }
                            ],
                            "text": "City of travel"
                        },
                        "valueString": "Essen"
                    },
                    {
                        "code": {
                            "coding": [
                                {
                                    "system": "http://loinc.org",
                                    "code": "91560-3",
                                    "display": "Date of departure from travel destination"
                                }
                            ],
                            "text": "Travel end date"
                        },
                        "valueDateTime": "2020-09-19"
                    }
                ]
            },
            "request": {
                "method": "POST",
                "url": "Observation"
            }
        },
        {
            "resource": {
                "resourceType": "Observation",
                "id": "da1fa3fe-a8a3-44b6-94c6-3497269436ec",
                "meta": {
                    "profile": [
                        "https://www.netzwerk-universitaetsmedizin.de/fhir/StructureDefinition/sars-cov-2-igg-ser-pl-ql-ia"
                    ]
                },
                "identifier": [
                    {
                        "type": {
                            "coding": [
                                {
                                    "system": "http://terminology.hl7.org/CodeSystem/v2-0203",
                                    "code": "OBI"
                                }
                            ]
                        },
                        "system": "https://www.charite.de/fhir/CodeSystem/lab-identifiers",
                        "value": "94563-4_SARS-CoV-2-IgG-Ql",
                        "assigner": {
                            "reference": "Organization/Charit\u00e9"
                        }
                    }
                ],
                "status": "final",
                "category": [
                    {
                        "coding": [
                            {
                                "system": "http://loinc.org",
                                "code": "26436-6"
                            },
                            {
                                "system": "http://terminology.hl7.org/CodeSystem/observation-category",
                                "code": "laboratory"
                            }
                        ]
                    }
                ],
                "code": {
                    "coding": [
                        {
                            "system": "http://loinc.org",
                            "code": "94563-4",
                            "display": "SARS-CoV-2 (COVID-19) IgG Ab [Presence] in Serum or Plasma by Immunoassay"
                        }
                    ],
                    "text": "SARS-CoV-2 IgG antibodies qualitative"
                },
                "subject": {
                    "reference": "Patient/0b3937f8-5186-4608-aa4a-6346f6183de6"
                },
                "effectiveDateTime": "2020-10-19T08:43:33+02:00",
                "valueCodeableConcept": {
                    "coding": [
                        {
                            "system": "http://snomed.info/sct",
                            "code": "260373001",
                            "display": "Detected (qualifier value)"
                        }
                    ]
                }
            },
            "request": {
                "method": "POST",
                "url": "Observation"
            }
        },
        {
            "resource": {
                "resourceType": "Observation",
                "id": "eee655bf-87c3-4567-9fb0-2609b535cd14",
                "meta": {
                    "profile": [
                        "https://www.medizininformatik-initiative.de/fhir/core/modul-labor/StructureDefinition/ObservationLab"
                    ]
                },
                "identifier": [
                    {
                        "type": {
                            "coding": [
                                {
                                    "system": "http://terminology.hl7.org/CodeSystem/v2-0203",
                                    "code": "OBI"
                                }
                            ]
                        },
                        "system": "https://www.charite.de/fhir/CodeSystem/lab-identifiers",
                        "value": "1988-5_c-reactive-protein-mass-per-volume-in-serum-or-plasma",
                        "assigner": {
                            "reference": "Organization/Charit\u00e9"
                        }
                    }
                ],
                "status": "final",
                "category": [
                    {
                        "coding": [
                            {
                                "system": "http://loinc.org",
                                "code": "26436-6"
                            },
                            {
                                "system": "http://terminology.hl7.org/CodeSystem/observation-category",
                                "code": "laboratory"
                            }
                        ]
                    }
                ],
                "code": {
                    "coding": [
                        {
                            "system": "http://loinc.org",
                            "code": "1988-5",
                            "display": "C reactive protein [Mass/volume] in Serum or Plasma"
                        }
                    ],
                    "text": "CRP"
                },
                "subject": {
                    "reference": "Patient/0b3937f8-5186-4608-aa4a-6346f6183de6"
                },
                "effectiveDateTime": "2020-10-16T08:49:21+02:00",
                "valueQuantity": {
                    "value": 4.9,
                    "unit": "mg/L",
                    "system": "http://unitsofmeasure.org",
                    "code": "mg/L"
                }
            },
            "request": {
                "method": "POST",
                "url": "Observation"
            }
        },
        {
            "resource": {
                "resourceType": "Procedure",
                "id": "07e2eecd-b52c-4ae3-aca7-f9c12e184ede",
                "meta": {
                    "profile": [
                        "https://www.netzwerk-universitaetsmedizin.de/fhir/StructureDefinition/radiology-procedures"
                    ]
                },
                "status": "completed",
                "category": {
                    "coding": [
                        {
                            "system": "http://snomed.info/sct",
                            "code": "103693007",
                            "display": "Diagnostic procedure (procedure)"
                        }
                    ]
                },
                "code": {
                    "coding": [
                        {
                            "system": "http://snomed.info/sct",
                            "code": "168537006",
                            "display": "Plain radiography"
                        },
                        {
                            "system": "http://dicom.nema.org/resources/ontology/DCM",
                            "code": "RG",
                            "display": "Radiographic imaging"
                        }
                    ],
                    "text": "Chest x-ray"
                },
                "subject": {
                    "reference": "Patient/0b3937f8-5186-4608-aa4a-6346f6183de6"
                },
                "performedDateTime": "2020-09-30",
                "bodySite": [
                    {
                        "coding": [
                            {
                                "system": "http://snomed.info/sct",
                                "code": "39607008",
                                "display": "Lung structure (body structure)"
                            }
                        ]
                    }
                ],
                "report": [
                    {
                        "reference": "DiagnosticReport/example"
                    }
                ]
            },
            "request": {
                "method": "POST",
                "url": "Procedure"
            }
        },
        {
            "resource": {
                "resourceType": "Observation",
                "id": "f72e0fbe-08c2-495b-b43a-be2477221b3a",
                "meta": {
                    "profile": [
                        "https://www.netzwerk-universitaetsmedizin.de/fhir/StructureDefinition/smoking-status"
                    ]
                },
                "status": "final",
                "category": [
                    {
                        "coding": [
                            {
                                "system": "http://terminology.hl7.org/CodeSystem/observation-category",
                                "code": "social-history",
                                "display": "Social History"
                            }
                        ]
                    }
                ],
                "code": {
                    "coding": [
                        {
                            "system": "http://loinc.org",
                            "code": "72166-2",
                            "display": "Tobacco smoking status"
                        }
                    ]
                },
                "subject": {
                    "reference": "Patient/0b3937f8-5186-4608-aa4a-6346f6183de6"
                },
                "effectiveDateTime": "2020-10-06",
                "valueCodeableConcept": {
                    "coding": [
                        {
                            "system": "http://loinc.org",
                            "code": "LA18976-3",
                            "display": "Current every day smoker"
                        }
                    ],
                    "text": "Patient is smoker"
                }
            },
            "request": {
                "method": "POST",
                "url": "Observation"
            }
        },
        {
            "resource": {
                "resourceType": "Observation",
                "id": "22732de8-3eb6-477e-81d6-28fb906b3e4e",
                "meta": {
                    "profile": [
                        "https://www.netzwerk-universitaetsmedizin.de/fhir/StructureDefinition/sars-cov-2-ab-ser-pl-ia-acnc"
                    ]
                },
                "identifier": [
                    {
                        "type": {
                            "coding": [
                                {
                                    "system": "http://terminology.hl7.org/CodeSystem/v2-0203",
                                    "code": "OBI"
                                }
                            ]
                        },
                        "system": "https://www.charite.de/fhir/CodeSystem/lab-identifiers",
                        "value": "94769-7_SARS-CoV-2-Ab-Qn",
                        "assigner": {
                            "reference": "Organization/Charit\u00e9"
                        }
                    }
                ],
                "status": "final",
                "category": [
                    {
                        "coding": [
                            {
                                "system": "http://loinc.org",
                                "code": "26436-6"
                            },
                            {
                                "system": "http://terminology.hl7.org/CodeSystem/observation-category",
                                "code": "laboratory"
                            }
                        ]
                    }
                ],
                "code": {
                    "coding": [
                        {
                            "system": "http://loinc.org",
                            "code": "94769-7",
                            "display": "SARS-CoV-2 (COVID-19) Ab [Units/volume] in Serum or Plasma by Immunoassay"
                        }
                    ],
                    "text": "SARS-CoV-2 antibodies quantitative"
                },
                "subject": {
                    "reference": "Patient/0b3937f8-5186-4608-aa4a-6346f6183de6"
                },
                "effectiveDateTime": "2020-10-19T08:43:33+02:00",
                "valueQuantity": {
                    "value": 240,
                    "unit": "[IU]/mL",
                    "system": "http://unitsofmeasure.org",
                    "code": "[IU]/mL"
                }
            },
            "request": {
                "method": "POST",
                "url": "Observation"
            }
        },
        {
            "resource": {
                "resourceType": "Condition",
                "id": "66ab1945-daf5-4208-9e13-3cf55e8e2e88",
                "meta": {
                    "profile": [
                        "https://www.netzwerk-universitaetsmedizin.de/fhir/StructureDefinition/chronic-lung-diseases"
                    ]
                },
                "modifierExtension": [
                    {
                        "url": "https://www.netzwerk-universitaetsmedizin.de/fhir/StructureDefinition/uncertainty-of-presence",
                        "valueCodeableConcept": {
                            "coding": [
                                {
                                    "system": "http://snomed.info/sct",
                                    "code": "261665006",
                                    "display": "Unknown (qualifier value)"
                                }
                            ],
                            "text": "Presence of condition is unknown."
                        }
                    }
                ],
                "category": [
                    {
                        "coding": [
                            {
                                "system": "http://snomed.info/sct",
                                "code": "418112009",
                                "display": "Pulmonary medicine"
                            }
                        ]
                    }
                ],
                "code": {
                    "coding": [
                        {
                            "system": "http://snomed.info/sct",
                            "code": "78275009",
                            "display": "Obstructive sleep apnea syndrome"
                        }
                    ]
                },
                "subject": {
                    "reference": "Patient/0b3937f8-5186-4608-aa4a-6346f6183de6"
                },
                "recordedDate": "2020-10-06"
            },
            "request": {
                "method": "POST",
                "url": "Condition"
            }
        },
        {
            "resource": {
                "resourceType": "Condition",
                "id": "a9239a0b-861f-436d-9dd3-374155149650",
                "meta": {
                    "profile": [
                        "https://www.netzwerk-universitaetsmedizin.de/fhir/StructureDefinition/rheumatological-immunological-diseases"
                    ]
                },
                "verificationStatus": {
                    "coding": [
                        {
                            "system": "http://terminology.hl7.org/CodeSystem/condition-ver-status",
                            "code": "refuted",
                            "display": "Refuted"
                        },
                        {
                            "system": "http://snomed.info/sct",
                            "code": "410594000",
                            "display": "Definitely NOT present (qualifier value)"
                        }
                    ]
                },
                "category": [
                    {
                        "coding": [
                            {
                                "system": "http://snomed.info/sct",
                                "code": "394810000",
                                "display": "Rheumatology"
                            },
                            {
                                "system": "http://snomed.info/sct",
                                "code": "408480009",
                                "display": "Clinical immunology"
                            }
                        ]
                    }
                ],
                "code": {
                    "coding": [
                        {
                            "system": "http://snomed.info/sct",
                            "code": "31996006",
                            "display": "Vasculitis"
                        }
                    ]
                },
                "subject": {
                    "reference": "Patient/0b3937f8-5186-4608-aa4a-6346f6183de6"
                },
                "recordedDate": "2020-10-06"
            },
            "request": {
                "method": "POST",
                "url": "Condition"
            }
        },
        {
            "resource": {
                "resourceType": "Immunization",
                "id": "c17f192c-f765-4729-818a-4ee55be5c87b",
                "meta": {
                    "profile": [
                        "https://www.netzwerk-universitaetsmedizin.de/fhir/StructureDefinition/immunization"
                    ]
                },
                "status": "completed",
                "vaccineCode": {
                    "coding": [
                        {
                            "system": "http://snomed.info/sct",
                            "code": "1119349007",
                            "display": "Vaccine product containing only Severe acute respiratory syndrome coronavirus 2 messenger ribonucleic acid (medicinal product)"
                        }
                    ]
                },
                "patient": {
                    "reference": "Patient/0b3937f8-5186-4608-aa4a-6346f6183de6"
                },
                "occurrenceDateTime": "2020-12-27",
                "protocolApplied": [
                    {
                        "targetDisease": [
                            {
                                "coding": [
                                    {
                                        "system": "http://snomed.info/sct",
                                        "code": "840539006",
                                        "display": "Disease caused by Severe acute respiratory syndrome coronavirus 2 (disorder)"
                                    }
                                ]
                            }
                        ],
                        "_doseNumberString": {
                            "extension": [
                                {
                                    "url": "http://hl7.org/fhir/StructureDefinition/data-absent-reason",
                                    "valueCode": "unknown"
                                }
                            ]
                        }
                    }
                ]
            },
            "request": {
                "method": "POST",
                "url": "Immunization"
            }
        },
        {
            "resource": {
                "resourceType": "Observation",
                "id": "c8079220-594c-42dc-8cea-7a52a6833c2c",
                "meta": {
                    "profile": [
                        "https://www.netzwerk-universitaetsmedizin.de/fhir/StructureDefinition/heart-rate"
                    ]
                },
                "identifier": [
                    {
                        "type": {
                            "coding": [
                                {
                                    "system": "http://terminology.hl7.org/CodeSystem/v2-0203",
                                    "code": "OBI"
                                }
                            ]
                        },
                        "system": "https://www.charite.de/fhir/CodeSystem/observation-identifiers",
                        "value": "8867-4_HeartRate",
                        "assigner": {
                            "reference": "Organization/Charit\u00e9"
                        }
                    }
                ],
                "status": "final",
                "category": [
                    {
                        "coding": [
                            {
                                "system": "http://terminology.hl7.org/CodeSystem/observation-category",
                                "code": "vital-signs"
                            }
                        ]
                    }
                ],
                "code": {
                    "coding": [
                        {
                            "system": "http://loinc.org",
                            "code": "8867-4",
                            "display": "Heart rate"
                        },
                        {
                            "system": "http://snomed.info/sct",
                            "code": "364075005",
                            "display": "Heart rate (observable entity)"
                        }
                    ],
                    "text": "Heart rate"
                },
                "subject": {
                    "reference": "Patient/0b3937f8-5186-4608-aa4a-6346f6183de6"
                },
                "effectiveDateTime": "2020-09-25",
                "valueQuantity": {
                    "value": 81,
                    "unit": "per minute",
                    "system": "http://unitsofmeasure.org",
                    "code": "/min"
                }
            },
            "request": {
                "method": "POST",
                "url": "Observation"
            }
        },
        {
            "resource": {
                "resourceType": "Condition",
                "id": "526cafdc-3249-4ea7-b058-a0c82c81bda9",
                "meta": {
                    "profile": [
                        "https://www.netzwerk-universitaetsmedizin.de/fhir/StructureDefinition/gastrointestinal-ulcers"
                    ]
                },
                "verificationStatus": {
                    "coding": [
                        {
                            "system": "http://terminology.hl7.org/CodeSystem/condition-ver-status",
                            "code": "refuted",
                            "display": "Refuted"
                        },
                        {
                            "system": "http://snomed.info/sct",
                            "code": "410594000",
                            "display": "Definitely NOT present (qualifier value)"
                        }
                    ]
                },
                "category": [
                    {
                        "coding": [
                            {
                                "system": "http://snomed.info/sct",
                                "code": "394584008",
                                "display": "Gastroenterology"
                            }
                        ]
                    }
                ],
                "code": {
                    "coding": [
                        {
                            "system": "http://snomed.info/sct",
                            "code": "40845000",
                            "display": "Gastrointestinal ulcer"
                        }
                    ]
                },
                "subject": {
                    "reference": "Patient/0b3937f8-5186-4608-aa4a-6346f6183de6"
                },
                "recordedDate": "2020-10-06"
            },
            "request": {
                "method": "POST",
                "url": "Condition"
            }
        },
        {
            "resource": {
                "resourceType": "Patient",
                "id": "0b3937f8-5186-4608-aa4a-6346f6183de6",
                "meta": {
                    "profile": [
                        "https://www.netzwerk-universitaetsmedizin.de/fhir/StructureDefinition/Patient"
                    ]
                },
                "text": {
                    "status": "generated",
                    "div": "<div xmlns=\"http://www.w3.org/1999/xhtml\"><table class=\"hapiPropertyTable\"><tbody><tr><td>Identifier</td><td>codex_6348Q7</td></tr><tr><td>Date of birth</td><td><span>30 September 1953</span></td></tr></tbody></table></div>"
                },
                "extension": [
                    {
                        "url": "https://www.netzwerk-universitaetsmedizin.de/fhir/StructureDefinition/ethnic-group",
                        "valueCoding": {
                            "system": "http://snomed.info/sct",
                            "code": "26242008",
                            "display": "Mixed (qualifier value)"
                        }
                    },
                    {
                        "url": "https://www.netzwerk-universitaetsmedizin.de/fhir/StructureDefinition/age",
                        "extension": [
                            {
                                "url": "dateTimeOfDocumentation",
                                "valueDateTime": "2022-07-15"
                            },
                            {
                                "url": "age",
                                "valueAge": {
                                    "value": 32,
                                    "unit": "years",
                                    "system": "http://unitsofmeasure.org",
                                    "code": "a"
                                }
                            }
                        ]
                    }
                ],
                "identifier": [
                    {
                        "type": {
                            "coding": [
                                {
                                    "system": "http://terminology.hl7.org/CodeSystem/v2-0203",
                                    "code": "ANON"
                                }
                            ]
                        },
                        "system": "http://www.netzwerk-universitaetsmedizin.de/sid/bloom-filter",
                        "value": ""
                    }
                ],
                "gender": "unknown",
                "birthDate": "1989-10-20"
            },
            "request": {
                "method": "PUT",
                "url": "Patient/0b3937f8-5186-4608-aa4a-6346f6183de6"
            }
        },
        {
            "resource": {
                "resourceType": "Condition",
                "id": "68dc1113-2e71-40ac-b2f8-93009c45cba3",
                "meta": {
                    "profile": [
                        "https://www.netzwerk-universitaetsmedizin.de/fhir/StructureDefinition/chronic-kidney-diseases"
                    ]
                },
                "clinicalStatus": {
                    "coding": [
                        {
                            "system": "http://terminology.hl7.org/CodeSystem/condition-clinical",
                            "code": "active",
                            "display": "Active"
                        }
                    ]
                },
                "verificationStatus": {
                    "coding": [
                        {
                            "system": "http://terminology.hl7.org/CodeSystem/condition-ver-status",
                            "code": "confirmed",
                            "display": "Confirmed"
                        },
                        {
                            "system": "http://snomed.info/sct",
                            "code": "410605003",
                            "display": "Confirmed present (qualifier value)"
                        }
                    ]
                },
                "category": [
                    {
                        "coding": [
                            {
                                "system": "http://snomed.info/sct",
                                "code": "394589003",
                                "display": "Nephrology (qualifier value)"
                            }
                        ]
                    }
                ],
                "code": {
                    "coding": [
                        {
                            "system": "http://snomed.info/sct",
                            "code": "714152005",
                            "display": "Chronic kidney disease stage 5 on dialysis (disorder)"
                        }
                    ]
                },
                "subject": {
                    "reference": "Patient/0b3937f8-5186-4608-aa4a-6346f6183de6"
                },
                "recordedDate": "2020-10-28T17:01:09+01:00"
            },
            "request": {
                "method": "POST",
                "url": "Condition"
            }
        },
        {
            "resource": {
                "resourceType": "Consent",
                "id": "e1c90e84-aa7b-4999-8036-27f88dd7b60e",
                "meta": {
                    "profile": [
                        "https://www.netzwerk-universitaetsmedizin.de/fhir/StructureDefinition/do-not-resuscitate-order"
                    ]
                },
                "status": "active",
                "scope": {
                    "coding": [
                        {
                            "system": "http://terminology.hl7.org/CodeSystem/consentscope",
                            "code": "adr",
                            "display": "Advanced Care Directive"
                        }
                    ]
                },
                "category": [
                    {
                        "coding": [
                            {
                                "system": "http://terminology.hl7.org/CodeSystem/consentcategorycodes",
                                "code": "dnr",
                                "display": "Do Not Resuscitate"
                            }
                        ]
                    }
                ],
                "patient": {
                    "reference": "Patient/0b3937f8-5186-4608-aa4a-6346f6183de6"
                },
                "dateTime": "2021-09-01",
                "policy": [
                    {
                        "uri": "https://www.aerzteblatt.de/archiv/65440/DNR-Anordnungen-Das-fehlende-Bindeglied"
                    }
                ],
                "provision": {
                    "code": [
                        {
                            "coding": [
                                {
                                    "system": "http://snomed.info/sct",
                                    "code": "304252001",
                                    "display": "For resuscitation"
                                }
                            ]
                        }
                    ]
                }
            },
            "request": {
                "method": "POST",
                "url": "Consent"
            }
        },
        {
            "resource": {
                "resourceType": "Condition",
                "id": "cce76937-9712-48ca-a90c-ed68e55218b3",
                "meta": {
                    "profile": [
                        "https://www.netzwerk-universitaetsmedizin.de/fhir/StructureDefinition/organ-recipient"
                    ]
                },
                "verificationStatus": {
                    "coding": [
                        {
                            "system": "http://terminology.hl7.org/CodeSystem/condition-ver-status",
                            "code": "refuted",
                            "display": "Refuted"
                        },
                        {
                            "system": "http://snomed.info/sct",
                            "code": "410594000",
                            "display": "Definitely NOT present (qualifier value)"
                        }
                    ]
                },
                "category": [
                    {
                        "coding": [
                            {
                                "system": "http://snomed.info/sct",
                                "code": "788415003",
                                "display": "Transplant medicine"
                            }
                        ]
                    }
                ],
                "code": {
                    "coding": [
                        {
                            "system": "http://snomed.info/sct",
                            "code": "161663000",
                            "display": "History of being a tissue or organ recipient"
                        }
                    ]
                },
                "subject": {
                    "reference": "Patient/0b3937f8-5186-4608-aa4a-6346f6183de6"
                },
                "recordedDate": "2020-10-05"
            },
            "request": {
                "method": "POST",
                "url": "Condition"
            }
        },
        {
            "resource": {
                "resourceType": "Observation",
                "id": "b5adbc53-a1ee-4a57-9ede-fae4b4462bfb",
                "meta": {
                    "profile": [
                        "https://www.netzwerk-universitaetsmedizin.de/fhir/StructureDefinition/sars-cov-2-igm-ser-pl-ia-acnc"
                    ]
                },
                "identifier": [
                    {
                        "type": {
                            "coding": [
                                {
                                    "system": "http://terminology.hl7.org/CodeSystem/v2-0203",
                                    "code": "OBI"
                                }
                            ]
                        },
                        "system": "https://www.charite.de/fhir/CodeSystem/lab-identifiers",
                        "value": "94505-5_SARS-CoV-2-IgM-Qn",
                        "assigner": {
                            "reference": "Organization/Charit\u00e9"
                        }
                    }
                ],
                "status": "final",
                "category": [
                    {
                        "coding": [
                            {
                                "system": "http://loinc.org",
                                "code": "26436-6"
                            },
                            {
                                "system": "http://terminology.hl7.org/CodeSystem/observation-category",
                                "code": "laboratory"
                            }
                        ]
                    }
                ],
                "code": {
                    "coding": [
                        {
                            "system": "http://loinc.org",
                            "code": "94506-3",
                            "display": "SARS-CoV-2 (COVID-19) IgM Ab [Units/volume] in Serum or Plasma by Immunoassay"
                        }
                    ],
                    "text": "SARS-CoV-2 IgM antibodies quantitative"
                },
                "subject": {
                    "reference": "Patient/0b3937f8-5186-4608-aa4a-6346f6183de6"
                },
                "effectiveDateTime": "2020-10-19T08:43:33+02:00",
                "valueQuantity": {
                    "value": 219.5,
                    "unit": "[arb'U]/mL",
                    "system": "http://unitsofmeasure.org",
                    "code": "[arb'U]/mL"
                }
            },
            "request": {
                "method": "POST",
                "url": "Observation"
            }
        },
        {
            "resource": {
                "resourceType": "Observation",
                "id": "c3b5e9f0-b9ba-4a82-9785-801c535feaca",
                "meta": {
                    "profile": [
                        "https://www.netzwerk-universitaetsmedizin.de/fhir/StructureDefinition/sex-assigned-at-birth"
                    ]
                },
                "status": "final",
                "category": [
                    {
                        "coding": [
                            {
                                "system": "http://terminology.hl7.org/CodeSystem/observation-category",
                                "code": "social-history",
                                "display": "Social History"
                            }
                        ]
                    }
                ],
                "code": {
                    "coding": [
                        {
                            "system": "http://loinc.org",
                            "code": "76689-9",
                            "display": "Sex assigned at birth"
                        }
                    ]
                },
                "subject": {
                    "reference": "Patient/0b3937f8-5186-4608-aa4a-6346f6183de6"
                },
                "effectiveDateTime": "2020-10-26T10:51:48+01:00",
                "valueCodeableConcept": {
                    "coding": [
                        {
                            "system": "http://hl7.org/fhir/administrative-gender",
                            "code": "unknown",
                            "display": "Unknown"
                        }
                    ],
                    "text": "Unknown"
                }
            },
            "request": {
                "method": "POST",
                "url": "Observation"
            }
        },
        {
            "resource": {
                "resourceType": "Observation",
                "id": "e3110cb2-d4bb-4a3c-87e2-5dfcd273a18a",
                "meta": {
                    "profile": [
                        "https://www.netzwerk-universitaetsmedizin.de/fhir/StructureDefinition/sars-cov-2-rt-pcr"
                    ]
                },
                "identifier": [
                    {
                        "type": {
                            "coding": [
                                {
                                    "system": "http://terminology.hl7.org/CodeSystem/v2-0203",
                                    "code": "OBI"
                                }
                            ]
                        },
                        "system": "https://www.charite.de/fhir/CodeSystem/lab-identifiers",
                        "value": "94500-6_SARS-CoV-2-RNA-Presence-in-Respiratory-specimen",
                        "assigner": {
                            "reference": "Organization/Charit\u00e9"
                        }
                    }
                ],
                "status": "final",
                "category": [
                    {
                        "coding": [
                            {
                                "system": "http://loinc.org",
                                "code": "26436-6"
                            },
                            {
                                "system": "http://terminology.hl7.org/CodeSystem/observation-category",
                                "code": "laboratory"
                            }
                        ]
                    }
                ],
                "code": {
                    "coding": [
                        {
                            "system": "http://loinc.org",
                            "code": "94500-6",
                            "display": "SARS-CoV-2 (COVID-19) RNA [Presence] in Respiratory specimen by NAA with probe detection"
                        }
                    ],
                    "text": "SARS-CoV-2-RNA (PCR)"
                },
                "subject": {
                    "reference": "Patient/0b3937f8-5186-4608-aa4a-6346f6183de6"
                },
                "effectiveDateTime": "2020-10-16T08:49:21+02:00",
                "valueCodeableConcept": {
                    "coding": [
                        {
                            "system": "http://snomed.info/sct",
                            "code": "260415000",
                            "display": "Not detected (qualifier value)"
                        }
                    ],
                    "text": "SARS-CoV-2-RNA negativ"
                }
            },
            "request": {
                "method": "POST",
                "url": "Observation"
            }
        },
        {
            "resource": {
                "resourceType": "Observation",
                "id": "02f66f11-74ec-4877-9825-a64ca3f63e19",
                "meta": {
                    "profile": [
                        "https://www.netzwerk-universitaetsmedizin.de/fhir/StructureDefinition/study-inclusion-covid-19"
                    ]
                },
                "identifier": [
                    {
                        "type": {
                            "coding": [
                                {
                                    "system": "http://terminology.hl7.org/CodeSystem/v2-0203",
                                    "code": "OBI"
                                }
                            ]
                        },
                        "system": "https://www.charite.de/fhir/CodeSystem/observation-identifiers",
                        "value": "ecrf_02_StudyInclusionCovid19",
                        "assigner": {
                            "reference": "Organization/Charit\u00e9"
                        }
                    }
                ],
                "status": "final",
                "category": [
                    {
                        "coding": [
                            {
                                "system": "http://terminology.hl7.org/CodeSystem/observation-category",
                                "code": "survey"
                            }
                        ]
                    }
                ],
                "code": {
                    "coding": [
                        {
                            "system": "https://www.netzwerk-universitaetsmedizin.de/fhir/CodeSystem/ecrf-parameter-codes",
                            "code": "02",
                            "display": "Study inclusion due to Covid-19"
                        }
                    ],
                    "text": "Confirmed Covid-19 diagnosis as main reason for enrolment in the study"
                },
                "subject": {
                    "reference": "Patient/0b3937f8-5186-4608-aa4a-6346f6183de6"
                },
                "effectiveDateTime": "2020-10-16T08:49:21+02:00",
                "valueCodeableConcept": {
                    "coding": [
                        {
                            "system": "http://snomed.info/sct",
                            "code": "373067005",
                            "display": "No (qualifier value)"
                        }
                    ],
                    "text": "Covid-19 not the primary reason for study inclusion"
                }
            },
            "request": {
                "method": "POST",
                "url": "Observation"
            }
        },
        {
            "resource": {
                "resourceType": "Observation",
                "id": "7e746710-fad4-474b-8a28-422863f3a2b8",
                "meta": {
                    "profile": [
                        "https://www.netzwerk-universitaetsmedizin.de/fhir/StructureDefinition/sars-cov-2-iga-ser-pl-ia-acnc"
                    ]
                },
                "identifier": [
                    {
                        "type": {
                            "coding": [
                                {
                                    "system": "http://terminology.hl7.org/CodeSystem/v2-0203",
                                    "code": "OBI"
                                }
                            ]
                        },
                        "system": "https://www.charite.de/fhir/CodeSystem/lab-identifiers",
                        "value": "94720-0_SARS-CoV-2-IgA-Qn",
                        "assigner": {
                            "reference": "Organization/Charit\u00e9"
                        }
                    }
                ],
                "status": "final",
                "category": [
                    {
                        "coding": [
                            {
                                "system": "http://loinc.org",
                                "code": "26436-6"
                            },
                            {
                                "system": "http://terminology.hl7.org/CodeSystem/observation-category",
                                "code": "laboratory"
                            }
                        ]
                    }
                ],
                "code": {
                    "coding": [
                        {
                            "system": "http://loinc.org",
                            "code": "94720-0",
                            "display": "SARS-CoV-2 (COVID-19) IgA Ab [Units/volume] in Serum or Plasma by Immunoassay"
                        }
                    ],
                    "text": "SARS-CoV-2 IgA antibodies quantitative"
                },
                "subject": {
                    "reference": "Patient/0b3937f8-5186-4608-aa4a-6346f6183de6"
                },
                "effectiveDateTime": "2020-10-19T08:43:33+02:00",
                "valueQuantity": {
                    "value": 0.5,
                    "unit": "[IU]/mL",
                    "system": "http://unitsofmeasure.org",
                    "code": "[IU]/mL"
                }
            },
            "request": {
                "method": "POST",
                "url": "Observation"
            }
        },
        {
            "resource": {
                "resourceType": "Observation",
                "id": "cefe30c3-7597-421a-8509-8c15aa2a2d87",
                "meta": {
                    "profile": [
                        "https://www.netzwerk-universitaetsmedizin.de/fhir/StructureDefinition/patient-in-icu"
                    ]
                },
                "status": "final",
                "category": [
                    {
                        "coding": [
                            {
                                "system": "http://terminology.hl7.org/CodeSystem/observation-category",
                                "code": "survey",
                                "display": "Survey"
                            }
                        ]
                    }
                ],
                "code": {
                    "coding": [
                        {
                            "system": "http://loinc.org",
                            "code": "95420-6",
                            "display": "Whether the patient was admitted to intensive care unit (ICU) for condition of interest"
                        }
                    ]
                },
                "subject": {
                    "reference": "Patient/0b3937f8-5186-4608-aa4a-6346f6183de6"
                },
                "effectiveDateTime": "2020-10-14",
                "valueCodeableConcept": {
                    "coding": [
                        {
                            "system": "http://snomed.info/sct",
                            "code": "373067005",
                            "display": "No (qualifier value)"
                        }
                    ]
                }
            },
            "request": {
                "method": "POST",
                "url": "Observation"
            }
        },
        {
            "resource": {
                "resourceType": "MedicationStatement",
                "id": "4eb08ef0-df16-4f58-8bae-3baf6689b1f7",
                "meta": {
                    "profile": [
                        "https://www.netzwerk-universitaetsmedizin.de/fhir/StructureDefinition/pharmacological-therapy-ace-inhibitors"
                    ]
                },
                "status": "stopped",
                "medicationCodeableConcept": {
                    "coding": [
                        {
                            "system": "http://snomed.info/sct",
                            "code": "41549009",
                            "display": "Product containing angiotensin-converting enzyme inhibitor (product)"
                        },
                        {
                            "system": "http://fhir.de/CodeSystem/bfarm/atc",
                            "code": "C09A",
                            "display": "ACE-HEMMER, REIN"
                        }
                    ],
                    "text": "ACE inhibitors"
                },
                "subject": {
                    "reference": "Patient/0b3937f8-5186-4608-aa4a-6346f6183de6"
                },
                "effectiveDateTime": "2020-10-19T08:43:33+02:00"
            },
            "request": {
                "method": "POST",
                "url": "MedicationStatement"
            }
        },
        {
            "resource": {
                "resourceType": "Procedure",
                "id": "9fec44ce-5f2b-4814-8a71-6354e69a26b2",
                "meta": {
                    "profile": [
                        "https://www.netzwerk-universitaetsmedizin.de/fhir/StructureDefinition/respiratory-therapies"
                    ]
                },
                "status": "in-progress",
                "category": {
                    "coding": [
                        {
                            "system": "http://snomed.info/sct",
                            "code": "277132007",
                            "display": "Therapeutic procedure (procedure)"
                        }
                    ]
                },
                "code": {
                    "coding": [
                        {
                            "system": "http://snomed.info/sct",
                            "code": "53950000",
                            "display": "Respiratory therapy (procedure)"
                        }
                    ]
                },
                "subject": {
                    "reference": "Patient/0b3937f8-5186-4608-aa4a-6346f6183de6"
                },
                "performedPeriod": {
                    "start": "2020-12-12"
                }
            },
            "request": {
                "method": "POST",
                "url": "Procedure"
            }
        },
        {
            "resource": {
                "resourceType": "Procedure",
                "id": "example-dialysis-procedure-not-done",
                "meta": {
                    "profile": [
                        "https://www.netzwerk-universitaetsmedizin.de/fhir/StructureDefinition/dialysis"
                    ]
                },
                "status": "not-done",
                "category": {
                    "coding": [
                        {
                            "system": "http://snomed.info/sct",
                            "code": "277132007",
                            "display": "Therapeutic procedure (procedure)"
                        }
                    ]
                },
                "code": {
                    "coding": [
                        {
                            "system": "http://snomed.info/sct",
                            "code": "108241001",
                            "display": "Dialysis procedure (procedure)"
                        }
                    ]
                },
                "subject": {
                    "reference": "Patient/0b3937f8-5186-4608-aa4a-6346f6183de6"
                },
                "_performedDateTime": {
                    "extension": [
                        {
                            "url": "http://hl7.org/fhir/StructureDefinition/data-absent-reason",
                            "valueCode": "not-performed"
                        }
                    ]
                }
            },
            "request": {
                "method": "POST",
                "url": "Procedure"
            }
        },
        {
            "resource": {
                "resourceType": "Procedure",
                "id": "8bdeab33-e12e-4927-b161-80d7ba8a1188",
                "meta": {
                    "profile": [
                        "https://www.netzwerk-universitaetsmedizin.de/fhir/StructureDefinition/extracorporeal-membrane-oxygenation"
                    ]
                },
                "status": "not-done",
                "category": {
                    "coding": [
                        {
                            "system": "http://snomed.info/sct",
                            "code": "277132007",
                            "display": "Therapeutic procedure (procedure)"
                        }
                    ]
                },
                "code": {
                    "coding": [
                        {
                            "system": "http://snomed.info/sct",
                            "code": "233573008",
                            "display": "Extracorporeal membrane oxygenation (procedure)"
                        }
                    ],
                    "text": "ECMO"
                },
                "subject": {
                    "reference": "Patient/0b3937f8-5186-4608-aa4a-6346f6183de6"
                },
                "_performedDateTime": {
                    "extension": [
                        {
                            "url": "http://hl7.org/fhir/StructureDefinition/data-absent-reason",
                            "valueCode": "not-performed"
                        }
                    ]
                }
            },
            "request": {
                "method": "POST",
                "url": "Procedure"
            }
        },
        {
            "resource": {
                "resourceType": "MedicationStatement",
                "id": "10cfe21d-cb81-4590-8d4e-9f43f1521866",
                "meta": {
                    "profile": [
                        "https://www.netzwerk-universitaetsmedizin.de/fhir/StructureDefinition/pharmacological-therapy-immunoglobulins"
                    ]
                },
                "status": "unknown",
                "medicationCodeableConcept": {
                    "coding": [
                        {
                            "system": "http://snomed.info/sct",
                            "code": "333710000",
                            "display": "Product containing immunoglobulin (product)"
                        },
                        {
                            "system": "http://fhir.de/CodeSystem/bfarm/atc",
                            "code": "J06B",
                            "display": "IMMUNGLOBULINE"
                        }
                    ],
                    "text": "immunoglobulins"
                },
                "subject": {
                    "reference": "Patient/0b3937f8-5186-4608-aa4a-6346f6183de6"
                },
                "effectiveDateTime": "2020-10-19T08:43:33+02:00"
            },
            "request": {
                "method": "POST",
                "url": "MedicationStatement"
            }
        },
        {
            "resource": {
                "resourceType": "Observation",
                "id": "2a1e1c87-64f4-490b-912b-d8726b7b5f13",
                "meta": {
                    "profile": [
                        "https://www.netzwerk-universitaetsmedizin.de/fhir/StructureDefinition/blood-pressure"
                    ]
                },
                "identifier": [
                    {
                        "type": {
                            "coding": [
                                {
                                    "system": "http://terminology.hl7.org/CodeSystem/v2-0203",
                                    "code": "OBI"
                                }
                            ]
                        },
                        "system": "https://www.charite.de/fhir/CodeSystem/observation-identifiers",
                        "value": "85354-9_BloodPressure",
                        "assigner": {
                            "reference": "Organization/Charit\u00e9"
                        }
                    }
                ],
                "status": "final",
                "category": [
                    {
                        "coding": [
                            {
                                "system": "http://terminology.hl7.org/CodeSystem/observation-category",
                                "code": "vital-signs"
                            }
                        ]
                    }
                ],
                "code": {
                    "coding": [
                        {
                            "system": "http://loinc.org",
                            "code": "85354-9",
                            "display": "Blood pressure panel with all children optional"
                        },
                        {
                            "system": "http://snomed.info/sct",
                            "code": "75367002",
                            "display": "Blood pressure (observable entity)"
                        }
                    ],
                    "text": "Blood pressure"
                },
                "subject": {
                    "reference": "Patient/0b3937f8-5186-4608-aa4a-6346f6183de6"
                },
                "effectiveDateTime": "2020-09-25",
                "component": [
                    {
                        "code": {
                            "coding": [
                                {
                                    "system": "http://loinc.org",
                                    "code": "8480-6",
                                    "display": "Systolic blood pressure"
                                },
                                {
                                    "system": "http://snomed.info/sct",
                                    "code": "271649006",
                                    "display": "Systolic blood pressure"
                                }
                            ],
                            "text": "Systolic blood pressure"
                        },
                        "valueQuantity": {
                            "value": 120,
                            "unit": "mmHg",
                            "system": "http://unitsofmeasure.org",
                            "code": "mm[Hg]"
                        }
                    },
                    {
                        "code": {
                            "coding": [
                                {
                                    "system": "http://loinc.org",
                                    "code": "8462-4",
                                    "display": "Diastolic blood pressure"
                                },
                                {
                                    "system": "http://snomed.info/sct",
                                    "code": "271650006",
                                    "display": "Diastolic blood pressure (observable entity)"
                                }
                            ],
                            "text": "Diastolic blood pressure"
                        },
                        "valueQuantity": {
                            "value": 80,
                            "unit": "mmHg",
                            "system": "http://unitsofmeasure.org",
                            "code": "mm[Hg]"
                        }
                    }
                ]
            },
            "request": {
                "method": "POST",
                "url": "Observation"
            }
        },
        {
            "resource": {
                "resourceType": "Observation",
                "id": "71e371b6-b801-4387-bd36-ea015b2df658",
                "meta": {
                    "profile": [
                        "https://www.netzwerk-universitaetsmedizin.de/fhir/StructureDefinition/sofa-score"
                    ]
                },
                "identifier": [
                    {
                        "type": {
                            "coding": [
                                {
                                    "system": "http://terminology.hl7.org/CodeSystem/v2-0203",
                                    "code": "OBI"
                                }
                            ]
                        },
                        "system": "https://www.charite.de/fhir/CodeSystem/observation-identifiers",
                        "value": "06_SOFA-Score",
                        "assigner": {
                            "reference": "Organization/Charit\u00e9"
                        }
                    }
                ],
                "status": "final",
                "category": [
                    {
                        "coding": [
                            {
                                "system": "http://terminology.hl7.org/CodeSystem/observation-category",
                                "code": "survey"
                            }
                        ]
                    }
                ],
                "code": {
                    "coding": [
                        {
                            "system": "https://www.netzwerk-universitaetsmedizin.de/fhir/CodeSystem/ecrf-parameter-codes",
                            "code": "06",
                            "display": "SOFA-Score"
                        }
                    ],
                    "text": "Sepsis-related organ failure assessment score"
                },
                "subject": {
                    "reference": "Patient/0b3937f8-5186-4608-aa4a-6346f6183de6"
                },
                "effectiveDateTime": "2020-11-30T11:04:49+01:00",
                "valueInteger": 15
            },
            "request": {
                "method": "POST",
                "url": "Observation"
            }
        },
        {
            "resource": {
                "resourceType": "Observation",
                "id": "70ca7d00-0d8b-42bb-9508-a8fc76e5c7ad",
                "meta": {
                    "profile": [
                        "https://www.netzwerk-universitaetsmedizin.de/fhir/StructureDefinition/sars-cov-2-ab-ser-pl-ql-ia"
                    ]
                },
                "identifier": [
                    {
                        "type": {
                            "coding": [
                                {
                                    "system": "http://terminology.hl7.org/CodeSystem/v2-0203",
                                    "code": "OBI"
                                }
                            ]
                        },
                        "system": "https://www.charite.de/fhir/CodeSystem/lab-identifiers",
                        "value": "94762-2_SARS-CoV-2-Ab-Ql",
                        "assigner": {
                            "reference": "Organization/Charit\u00e9"
                        }
                    }
                ],
                "status": "final",
                "category": [
                    {
                        "coding": [
                            {
                                "system": "http://loinc.org",
                                "code": "26436-6"
                            },
                            {
                                "system": "http://terminology.hl7.org/CodeSystem/observation-category",
                                "code": "laboratory"
                            }
                        ]
                    }
                ],
                "code": {
                    "coding": [
                        {
                            "system": "http://loinc.org",
                            "code": "94762-2",
                            "display": "SARS-CoV-2 (COVID-19) Ab [Presence] in Serum or Plasma by Immunoassay"
                        }
                    ],
                    "text": "SARS-CoV-2 antibodies qualitative"
                },
                "subject": {
                    "reference": "Patient/0b3937f8-5186-4608-aa4a-6346f6183de6"
                },
                "effectiveDateTime": "2020-10-19T08:43:33+02:00",
                "valueCodeableConcept": {
                    "coding": [
                        {
                            "system": "http://snomed.info/sct",
                            "code": "260373001",
                            "display": "Detected (qualifier value)"
                        }
                    ]
                }
            },
            "request": {
                "method": "POST",
                "url": "Observation"
            }
        },
        {
            "resource": {
                "resourceType": "Observation",
                "id": "e6dea5c4-60b0-43cf-b1ca-410ddd34f264",
                "meta": {
                    "profile": [
                        "https://www.netzwerk-universitaetsmedizin.de/fhir/StructureDefinition/blood-gas-panel"
                    ]
                },
                "identifier": [
                    {
                        "type": {
                            "coding": [
                                {
                                    "system": "http://terminology.hl7.org/CodeSystem/v2-0203",
                                    "code": "OBI"
                                }
                            ]
                        },
                        "system": "https://www.charite.de/fhir/CodeSystem/lab-identifiers",
                        "value": "24336-0_gasPanelBldA",
                        "assigner": {
                            "reference": "Organization/Charit\u00e9"
                        }
                    }
                ],
                "status": "final",
                "category": [
                    {
                        "coding": [
                            {
                                "system": "http://loinc.org",
                                "code": "26436-6"
                            },
                            {
                                "system": "http://terminology.hl7.org/CodeSystem/observation-category",
                                "code": "laboratory"
                            },
                            {
                                "system": "http://loinc.org",
                                "code": "18767-4"
                            }
                        ]
                    }
                ],
                "code": {
                    "coding": [
                        {
                            "system": "http://loinc.org",
                            "code": "24336-0",
                            "display": "Gas panel - Arterial blood"
                        }
                    ],
                    "text": "Gas panel - Arterial blood"
                },
                "subject": {
                    "reference": "Patient/0b3937f8-5186-4608-aa4a-6346f6183de6"
                },
                "effectiveDateTime": "2020-09-21",
                "hasMember": [
                    {
                        "reference": "Observation/ac8b697d-7088-4fbe-9ece-51df2d3f1e04"
                    },
                    {
                        "reference": "Observation/6a78560b-2f7c-4af5-a7bc-3c7d62ca8458"
                    },
                    {
                        "reference": "Observation/e39a18a6-63d7-4117-a38e-1f29be15f6fa"
                    },
                    {
                        "reference": "Observation/6fa9e2be-d15a-4e77-81fc-056dda521875"
                    },
                    {
                        "reference": "Observation/c9f96dd3-a77a-4aa9-9b12-43cd1972d9a4"
                    }
                ]
            },
            "request": {
                "method": "POST",
                "url": "Observation"
            }
        },
        {
            "resource": {
                "resourceType": "Observation",
                "id": "23499ea6-d046-4e91-b7ab-d9cf040add72",
                "meta": {
                    "profile": [
                        "https://www.netzwerk-universitaetsmedizin.de/fhir/StructureDefinition/body-height"
                    ]
                },
                "identifier": [
                    {
                        "type": {
                            "coding": [
                                {
                                    "system": "http://terminology.hl7.org/CodeSystem/v2-0203",
                                    "code": "OBI"
                                }
                            ]
                        },
                        "system": "https://www.charite.de/fhir/CodeSystem/observation-identifiers",
                        "value": "8302-2_BodyHeight",
                        "assigner": {
                            "reference": "Organization/Charit\u00e9"
                        }
                    }
                ],
                "status": "final",
                "category": [
                    {
                        "coding": [
                            {
                                "system": "http://terminology.hl7.org/CodeSystem/observation-category",
                                "code": "vital-signs"
                            }
                        ]
                    }
                ],
                "code": {
                    "coding": [
                        {
                            "system": "http://loinc.org",
                            "code": "8302-2",
                            "display": "Body height"
                        },
                        {
                            "system": "http://snomed.info/sct",
                            "code": "1153637007",
                            "display": "Body height (observable entity)"
                        }
                    ],
                    "text": "Body height"
                },
                "subject": {
                    "reference": "Patient/0b3937f8-5186-4608-aa4a-6346f6183de6"
                },
                "effectiveDateTime": "2020-10-02",
                "valueQuantity": {
                    "value": 167,
                    "unit": "centimeter",
                    "system": "http://unitsofmeasure.org",
                    "code": "cm"
                }
            },
            "request": {
                "method": "POST",
                "url": "Observation"
            }
        },
        {
            "resource": {
                "resourceType": "Condition",
                "id": "a1f9e0ca-10d3-48a1-8ba5-021d84a80d8d",
                "meta": {
                    "profile": [
                        "https://www.netzwerk-universitaetsmedizin.de/fhir/StructureDefinition/human-immunodeficiency-virus-infection"
                    ]
                },
                "clinicalStatus": {
                    "coding": [
                        {
                            "system": "http://terminology.hl7.org/CodeSystem/condition-clinical",
                            "code": "active",
                            "display": "Active"
                        }
                    ]
                },
                "verificationStatus": {
                    "coding": [
                        {
                            "system": "http://terminology.hl7.org/CodeSystem/condition-ver-status",
                            "code": "confirmed",
                            "display": "Confirmed"
                        },
                        {
                            "system": "http://snomed.info/sct",
                            "code": "410605003",
                            "display": "Confirmed present (qualifier value)"
                        }
                    ]
                },
                "category": [
                    {
                        "coding": [
                            {
                                "system": "http://snomed.info/sct",
                                "code": "394807007",
                                "display": "Infectious diseases (specialty)"
                            }
                        ]
                    }
                ],
                "code": {
                    "coding": [
                        {
                            "system": "http://snomed.info/sct",
                            "code": "86406008",
                            "display": "Human immunodeficiency virus infection"
                        }
                    ]
                },
                "subject": {
                    "reference": "Patient/0b3937f8-5186-4608-aa4a-6346f6183de6"
                },
                "recordedDate": "2020-10-06"
            },
            "request": {
                "method": "POST",
                "url": "Condition"
            }
        },
        {
            "resource": {
                "resourceType": "Observation",
                "id": "example-observation-bladder-temperature",
                "meta": {
                    "profile": [
                        "https://www.netzwerk-universitaetsmedizin.de/fhir/StructureDefinition/body-temperature"
                    ]
                },
                "identifier": [
                    {
                        "type": {
                            "coding": [
                                {
                                    "system": "http://terminology.hl7.org/CodeSystem/v2-0203",
                                    "code": "OBI"
                                }
                            ]
                        },
                        "system": "https://www.charite.de/fhir/CodeSystem/observation-identifiers",
                        "value": "8310-5_BodyTemperature",
                        "assigner": {
                            "reference": "Organization/Charit\u00e9"
                        }
                    }
                ],
                "status": "final",
                "category": [
                    {
                        "coding": [
                            {
                                "system": "http://terminology.hl7.org/CodeSystem/observation-category",
                                "code": "vital-signs"
                            }
                        ]
                    }
                ],
                "code": {
                    "coding": [
                        {
                            "system": "http://loinc.org",
                            "code": "8310-5",
                            "display": "Body temperature"
                        },
                        {
                            "system": "http://loinc.org",
                            "code": "8334-5",
                            "display": "Body temperature - Urinary bladder"
                        },
                        {
                            "system": "http://snomed.info/sct",
                            "code": "386725007",
                            "display": "Body temperature (observable entity)"
                        },
                        {
                            "system": "http://snomed.info/sct",
                            "code": "698832009",
                            "display": "Core body temperature measured at urinary bladder (observable entity)"
                        }
                    ],
                    "text": "Body temperature"
                },
                "subject": {
                    "reference": "Patient/0b3937f8-5186-4608-aa4a-6346f6183de6"
                },
                "effectiveDateTime": "2021-04-14",
                "valueQuantity": {
                    "value": 36.8,
                    "unit": "\u00b0C",
                    "system": "http://unitsofmeasure.org",
                    "code": "Cel"
                },
                "bodySite": {
                    "coding": [
                        {
                            "system": "http://snomed.info/sct",
                            "code": "89837001",
                            "display": "Urinary bladder structure (body structure)"
                        }
                    ]
                }
            },
            "request": {
                "method": "POST",
                "url": "Observation"
            }
        },
        {
            "resource": {
                "resourceType": "Observation",
                "id": "b08b1687-2ea1-4b14-9473-dd04389169ec",
                "meta": {
                    "profile": [
                        "https://www.netzwerk-universitaetsmedizin.de/fhir/StructureDefinition/sars-cov-2-igm-ser-pl-ql-ia"
                    ]
                },
                "identifier": [
                    {
                        "type": {
                            "coding": [
                                {
                                    "system": "http://terminology.hl7.org/CodeSystem/v2-0203",
                                    "code": "OBI"
                                }
                            ]
                        },
                        "system": "https://www.charite.de/fhir/CodeSystem/lab-identifiers",
                        "value": "94564-2_SARS-CoV-2-IgM-Ql",
                        "assigner": {
                            "reference": "Organization/Charit\u00e9"
                        }
                    }
                ],
                "status": "final",
                "category": [
                    {
                        "coding": [
                            {
                                "system": "http://loinc.org",
                                "code": "26436-6"
                            },
                            {
                                "system": "http://terminology.hl7.org/CodeSystem/observation-category",
                                "code": "laboratory"
                            }
                        ]
                    }
                ],
                "code": {
                    "coding": [
                        {
                            "system": "http://loinc.org",
                            "code": "94564-2",
                            "display": "SARS-CoV-2 (COVID-19) IgM Ab [Presence] in Serum or Plasma by Immunoassay"
                        }
                    ],
                    "text": "SARS-CoV-2 IgM antibodies qualitative"
                },
                "subject": {
                    "reference": "Patient/0b3937f8-5186-4608-aa4a-6346f6183de6"
                },
                "effectiveDateTime": "2020-10-19T08:43:33+02:00",
                "valueCodeableConcept": {
                    "coding": [
                        {
                            "system": "http://snomed.info/sct",
                            "code": "260373001",
                            "display": "Detected (qualifier value)"
                        }
                    ]
                }
            },
            "request": {
                "method": "POST",
                "url": "Observation"
            }
        },
        {
            "resource": {
                "resourceType": "Condition",
                "id": "cdcd5a53-28fa-43d0-8873-80e3af27e3b8",
                "meta": {
                    "profile": [
                        "https://www.netzwerk-universitaetsmedizin.de/fhir/StructureDefinition/cardiovascular-diseases"
                    ]
                },
                "verificationStatus": {
                    "coding": [
                        {
                            "system": "http://terminology.hl7.org/CodeSystem/condition-ver-status",
                            "code": "refuted",
                            "display": "Refuted"
                        },
                        {
                            "system": "http://snomed.info/sct",
                            "code": "410594000",
                            "display": "Definitely NOT present (qualifier value)"
                        }
                    ]
                },
                "category": [
                    {
                        "coding": [
                            {
                                "system": "http://snomed.info/sct",
                                "code": "722414000",
                                "display": "Vascular medicine"
                            }
                        ]
                    }
                ],
                "code": {
                    "coding": [
                        {
                            "system": "http://snomed.info/sct",
                            "code": "399261000",
                            "display": "History of coronary artery bypass grafting (situation)"
                        }
                    ]
                },
                "subject": {
                    "reference": "Patient/0b3937f8-5186-4608-aa4a-6346f6183de6"
                },
                "recordedDate": "2020-10-06"
            },
            "request": {
                "method": "POST",
                "url": "Condition"
            }
        },
        {
            "resource": {
                "resourceType": "Condition",
                "id": "018ed637-c0b3-4b6d-8b8f-e8686949cc7f",
                "meta": {
                    "profile": [
                        "https://www.netzwerk-universitaetsmedizin.de/fhir/StructureDefinition/diagnosis-covid-19"
                    ]
                },
                "clinicalStatus": {
                    "coding": [
                        {
                            "system": "http://terminology.hl7.org/CodeSystem/condition-clinical",
                            "code": "active",
                            "display": "Active"
                        }
                    ]
                },
                "verificationStatus": {
                    "coding": [
                        {
                            "system": "http://terminology.hl7.org/CodeSystem/condition-ver-status",
                            "code": "confirmed",
                            "display": "Confirmed"
                        },
                        {
                            "system": "http://snomed.info/sct",
                            "code": "410605003",
                            "display": "Confirmed present (qualifier value)"
                        }
                    ]
                },
                "category": [
                    {
                        "coding": [
                            {
                                "system": "http://snomed.info/sct",
                                "code": "394807007",
                                "display": "Infectious diseases (specialty) (qualifier value)"
                            }
                        ]
                    }
                ],
                "code": {
                    "coding": [
                        {
                            "system": "http://snomed.info/sct",
                            "code": "840539006",
                            "display": "Disease caused by Severe acute respiratory syndrome coronavirus 2 (disorder)"
                        }
                    ]
                },
                "subject": {
                    "reference": "Patient/0b3937f8-5186-4608-aa4a-6346f6183de6"
                },
                "recordedDate": "2020-10-23T12:48:23+02:00",
                "stage": [
                    {
                        "summary": {
                            "coding": [
                                {
                                    "system": "http://snomed.info/sct",
                                    "code": "24484000",
                                    "display": "Severe (severity modifier) (qualifier value)"
                                }
                            ],
                            "text": "Critical phase"
                        },
                        "type": {
                            "coding": [
                                {
                                    "system": "http://loinc.org",
                                    "code": "88859-4",
                                    "display": "Disease stage score for risk calculation"
                                }
                            ]
                        }
                    }
                ]
            },
            "request": {
                "method": "POST",
                "url": "Condition"
            }
        },
        {
            "resource": {
                "resourceType": "Observation",
                "id": "7297b0fd-3be7-4b88-a63a-6ba651152c41",
                "meta": {
                    "profile": [
                        "https://www.netzwerk-universitaetsmedizin.de/fhir/StructureDefinition/sars-cov-2-igg-ser-pl-ia-acnc"
                    ]
                },
                "identifier": [
                    {
                        "type": {
                            "coding": [
                                {
                                    "system": "http://terminology.hl7.org/CodeSystem/v2-0203",
                                    "code": "OBI"
                                }
                            ]
                        },
                        "system": "https://www.charite.de/fhir/CodeSystem/lab-identifiers",
                        "value": "94505-5_SARS-CoV-2-IgG-Qn",
                        "assigner": {
                            "reference": "Organization/Charit\u00e9"
                        }
                    }
                ],
                "status": "final",
                "category": [
                    {
                        "coding": [
                            {
                                "system": "http://loinc.org",
                                "code": "26436-6"
                            },
                            {
                                "system": "http://terminology.hl7.org/CodeSystem/observation-category",
                                "code": "laboratory"
                            }
                        ]
                    }
                ],
                "code": {
                    "coding": [
                        {
                            "system": "http://loinc.org",
                            "code": "94505-5",
                            "display": "SARS-CoV-2 (COVID-19) IgG Ab [Units/volume] in Serum or Plasma by Immunoassay"
                        }
                    ],
                    "text": "SARS-CoV-2 IgG antibodies quantitative"
                },
                "subject": {
                    "reference": "Patient/0b3937f8-5186-4608-aa4a-6346f6183de6"
                },
                "effectiveDateTime": "2020-10-19T08:43:33+02:00",
                "valueQuantity": {
                    "value": 20,
                    "unit": "[arb'U]/mL",
                    "system": "http://unitsofmeasure.org",
                    "code": "[arb'U]/mL"
                }
            },
            "request": {
                "method": "POST",
                "url": "Observation"
            }
        },
        {
            "resource": {
                "resourceType": "Observation",
                "id": "example-observation-resp-rate-on-ventilator",
                "meta": {
                    "profile": [
                        "https://www.netzwerk-universitaetsmedizin.de/fhir/StructureDefinition/respiratory-rate"
                    ]
                },
                "identifier": [
                    {
                        "type": {
                            "coding": [
                                {
                                    "system": "http://terminology.hl7.org/CodeSystem/v2-0203",
                                    "code": "OBI"
                                }
                            ]
                        },
                        "system": "https://www.charite.de/fhir/CodeSystem/observation-identifiers",
                        "value": "9279-1_RespiratoryRate",
                        "assigner": {
                            "reference": "Organization/Charit\u00e9"
                        }
                    }
                ],
                "status": "final",
                "category": [
                    {
                        "coding": [
                            {
                                "system": "http://terminology.hl7.org/CodeSystem/observation-category",
                                "code": "vital-signs"
                            }
                        ]
                    }
                ],
                "code": {
                    "coding": [
                        {
                            "system": "http://loinc.org",
                            "code": "9279-1",
                            "display": "Respiratory rate"
                        },
                        {
                            "system": "http://loinc.org",
                            "code": "19840-8",
                            "display": "Breath rate spontaneous and mechanical --on ventilator"
                        },
                        {
                            "system": "http://snomed.info/sct",
                            "code": "86290005",
                            "display": "Respiratory rate (observable entity)"
                        }
                    ],
                    "text": "Respiratory rate on ventilator"
                },
                "subject": {
                    "reference": "Patient/0b3937f8-5186-4608-aa4a-6346f6183de6"
                },
                "effectiveDateTime": "2021-04-14",
                "valueQuantity": {
                    "value": 16,
                    "unit": "per minute",
                    "system": "http://unitsofmeasure.org",
                    "code": "/min"
                }
            },
            "request": {
                "method": "POST",
                "url": "Observation"
            }
        },
        {
            "resource": {
                "resourceType": "MedicationStatement",
                "id": "f6ba1b3a-5416-49e5-81b5-6d95e1eac1b9",
                "meta": {
                    "profile": [
                        "https://www.netzwerk-universitaetsmedizin.de/fhir/StructureDefinition/pharmacological-therapy-anticoagulants"
                    ]
                },
                "status": "active",
                "medicationCodeableConcept": {
                    "coding": [
                        {
                            "system": "http://snomed.info/sct",
                            "code": "81839001",
                            "display": "Medicinal product acting as anticoagulant agent (product)"
                        },
                        {
                            "system": "http://fhir.de/CodeSystem/bfarm/atc",
                            "code": "B01AB01",
                            "display": "Heparin"
                        }
                    ],
                    "text": "Atazanavir"
                },
                "subject": {
                    "reference": "Patient/0b3937f8-5186-4608-aa4a-6346f6183de6"
                },
                "effectiveDateTime": "2020-10-19T08:43:33+02:00",
                "reasonCode": [
                    {
                        "coding": [
                            {
                                "system": "http://snomed.info/sct",
                                "code": "360271000",
                                "display": "Prophylaxis - procedure intent (qualifier value)"
                            }
                        ]
                    }
                ]
            },
            "request": {
                "method": "POST",
                "url": "MedicationStatement"
            }
        },
        {
            "resource": {
                "resourceType": "Observation",
                "id": "80ac4908-3637-476d-a416-9ab7ed7474e6",
                "meta": {
                    "profile": [
                        "https://www.netzwerk-universitaetsmedizin.de/fhir/StructureDefinition/body-weight"
                    ]
                },
                "identifier": [
                    {
                        "type": {
                            "coding": [
                                {
                                    "system": "http://terminology.hl7.org/CodeSystem/v2-0203",
                                    "code": "OBI"
                                }
                            ]
                        },
                        "system": "https://www.charite.de/fhir/CodeSystem/observation-identifiers",
                        "value": "29463-7_BodyWeight",
                        "assigner": {
                            "reference": "Organization/Charit\u00e9"
                        }
                    }
                ],
                "status": "final",
                "category": [
                    {
                        "coding": [
                            {
                                "system": "http://terminology.hl7.org/CodeSystem/observation-category",
                                "code": "vital-signs"
                            }
                        ]
                    }
                ],
                "code": {
                    "coding": [
                        {
                            "system": "http://loinc.org",
                            "code": "29463-7",
                            "display": "Body weight"
                        },
                        {
                            "system": "http://snomed.info/sct",
                            "code": "27113001",
                            "display": "Body weight (observable entity)"
                        }
                    ],
                    "text": "Body weight"
                },
                "subject": {
                    "reference": "Patient/0b3937f8-5186-4608-aa4a-6346f6183de6"
                },
                "effectiveDateTime": "2020-10-02",
                "valueQuantity": {
                    "value": 84,
                    "unit": "kilogram",
                    "system": "http://unitsofmeasure.org",
                    "code": "kg"
                }
            },
            "request": {
                "method": "POST",
                "url": "Observation"
            }
        },
        {
            "resource": {
                "resourceType": "Condition",
                "id": "74962b89-f656-4f05-83af-2356667b45e4",
                "meta": {
                    "profile": [
                        "https://www.netzwerk-universitaetsmedizin.de/fhir/StructureDefinition/symptoms-covid-19"
                    ]
                },
                "verificationStatus": {
                    "coding": [
                        {
                            "system": "http://terminology.hl7.org/CodeSystem/condition-ver-status",
                            "code": "refuted",
                            "display": "Refuted"
                        },
                        {
                            "system": "http://snomed.info/sct",
                            "code": "410594000",
                            "display": "Definitely NOT present (qualifier value)"
                        }
                    ]
                },
                "category": [
                    {
                        "coding": [
                            {
                                "system": "http://loinc.org",
                                "code": "75325-1",
                                "display": "Symptom"
                            }
                        ]
                    }
                ],
                "code": {
                    "coding": [
                        {
                            "system": "http://snomed.info/sct",
                            "code": "40917007",
                            "display": "Clouded consciousness"
                        }
                    ]
                },
                "subject": {
                    "reference": "Patient/0b3937f8-5186-4608-aa4a-6346f6183de6"
                },
                "recordedDate": "2020-10-05"
            },
            "request": {
                "method": "POST",
                "url": "Condition"
            }
        },
        {
            "resource": {
                "resourceType": "Observation",
                "id": "9cd9ca09-3b1f-41eb-bd07-c8c78c236ab6",
                "meta": {
                    "profile": [
                        "https://www.netzwerk-universitaetsmedizin.de/fhir/StructureDefinition/interventional-clinical-trial-participation"
                    ]
                },
                "identifier": [
                    {
                        "type": {
                            "coding": [
                                {
                                    "system": "http://terminology.hl7.org/CodeSystem/v2-0203",
                                    "code": "OBI"
                                }
                            ]
                        },
                        "system": "https://www.charite.de/fhir/CodeSystem/observation-identifiers",
                        "value": "ecrf_03_InterventionalClinicalTrialsParticipation",
                        "assigner": {
                            "reference": "Organization/Charit\u00e9"
                        }
                    }
                ],
                "status": "final",
                "category": [
                    {
                        "coding": [
                            {
                                "system": "http://terminology.hl7.org/CodeSystem/observation-category",
                                "code": "survey"
                            }
                        ]
                    }
                ],
                "code": {
                    "coding": [
                        {
                            "system": "https://www.netzwerk-universitaetsmedizin.de/fhir/CodeSystem/ecrf-parameter-codes",
                            "code": "03",
                            "display": "Participation in interventional clinical trials"
                        }
                    ],
                    "text": "Has the patient participated in one or more interventional clinical trials?"
                },
                "subject": {
                    "reference": "Patient/0b3937f8-5186-4608-aa4a-6346f6183de6"
                },
                "effectiveDateTime": "2020-10-16T08:49:21+02:00",
                "valueCodeableConcept": {
                    "coding": [
                        {
                            "system": "http://snomed.info/sct",
                            "code": "373067005",
                            "display": "No (qualifier value)"
                        }
                    ],
                    "text": "Patient is not enrolled in other studies"
                }
            },
            "request": {
                "method": "POST",
                "url": "Observation"
            }
        },
        {
            "resource": {
                "resourceType": "Condition",
                "id": "bcac302e-0f7c-4deb-b56c-bf9eac1c4c39",
                "meta": {
                    "profile": [
                        "https://www.netzwerk-universitaetsmedizin.de/fhir/StructureDefinition/diabetes-mellitus"
                    ]
                },
                "modifierExtension": [
                    {
                        "url": "https://www.netzwerk-universitaetsmedizin.de/fhir/StructureDefinition/uncertainty-of-presence",
                        "valueCodeableConcept": {
                            "coding": [
                                {
                                    "system": "http://snomed.info/sct",
                                    "code": "261665006",
                                    "display": "Unknown (qualifier value)"
                                }
                            ],
                            "text": "Presence of condition is unknown."
                        }
                    }
                ],
                "category": [
                    {
                        "coding": [
                            {
                                "system": "http://snomed.info/sct",
                                "code": "408475000",
                                "display": "Diabetic medicine"
                            }
                        ]
                    }
                ],
                "code": {
                    "coding": [
                        {
                            "system": "http://snomed.info/sct",
                            "code": "8801005",
                            "display": "Secondary diabetes mellitus"
                        }
                    ]
                },
                "subject": {
                    "reference": "Patient/0b3937f8-5186-4608-aa4a-6346f6183de6"
                },
                "recordedDate": "2020-10-06"
            },
            "request": {
                "method": "POST",
                "url": "Condition"
            }
        },
        {
            "resource": {
                "resourceType": "Observation",
                "id": "e39a18a6-63d7-4117-a38e-1f29be15f6fa",
                "meta": {
                    "profile": [
                        "https://www.netzwerk-universitaetsmedizin.de/fhir/StructureDefinition/oxygen-partial-pressure"
                    ]
                },
                "identifier": [
                    {
                        "type": {
                            "coding": [
                                {
                                    "system": "http://terminology.hl7.org/CodeSystem/v2-0203",
                                    "code": "OBI"
                                }
                            ]
                        },
                        "system": "https://www.charite.de/fhir/CodeSystem/lab-identifiers",
                        "value": "2703-7_paO2",
                        "assigner": {
                            "reference": "Organization/Charit\u00e9"
                        }
                    }
                ],
                "status": "final",
                "category": [
                    {
                        "coding": [
                            {
                                "system": "http://loinc.org",
                                "code": "26436-6"
                            },
                            {
                                "system": "http://terminology.hl7.org/CodeSystem/observation-category",
                                "code": "laboratory"
                            },
                            {
                                "system": "http://loinc.org",
                                "code": "18767-4"
                            }
                        ]
                    }
                ],
                "code": {
                    "coding": [
                        {
                            "system": "http://loinc.org",
                            "code": "2703-7",
                            "display": "Oxygen [Partial pressure] in Arterial blood"
                        }
                    ],
                    "text": "Oxygen [Partial pressure] in Arterial blood"
                },
                "subject": {
                    "reference": "Patient/0b3937f8-5186-4608-aa4a-6346f6183de6"
                },
                "effectiveDateTime": "2020-09-21",
                "valueQuantity": {
                    "value": 67,
                    "unit": "mmHg",
                    "system": "http://unitsofmeasure.org",
                    "code": "mm[Hg]"
                }
            },
            "request": {
                "method": "POST",
                "url": "Observation"
            }
        },
        {
            "resource": {
                "resourceType": "Observation",
                "id": "ac8b697d-7088-4fbe-9ece-51df2d3f1e04",
                "meta": {
                    "profile": [
                        "https://www.netzwerk-universitaetsmedizin.de/fhir/StructureDefinition/pH"
                    ]
                },
                "identifier": [
                    {
                        "type": {
                            "coding": [
                                {
                                    "system": "http://terminology.hl7.org/CodeSystem/v2-0203",
                                    "code": "OBI"
                                }
                            ]
                        },
                        "system": "https://www.charite.de/fhir/CodeSystem/lab-identifiers",
                        "value": "2744-1_pH",
                        "assigner": {
                            "reference": "Organization/Charit\u00e9"
                        }
                    }
                ],
                "status": "final",
                "category": [
                    {
                        "coding": [
                            {
                                "system": "http://loinc.org",
                                "code": "26436-6"
                            },
                            {
                                "system": "http://terminology.hl7.org/CodeSystem/observation-category",
                                "code": "laboratory"
                            },
                            {
                                "system": "http://loinc.org",
                                "code": "18767-4"
                            }
                        ]
                    }
                ],
                "code": {
                    "coding": [
                        {
                            "system": "http://loinc.org",
                            "code": "2744-1",
                            "display": "pH of Arterial blood"
                        }
                    ],
                    "text": "pH of Arterial blood"
                },
                "subject": {
                    "reference": "Patient/0b3937f8-5186-4608-aa4a-6346f6183de6"
                },
                "effectiveDateTime": "2020-09-21",
                "valueQuantity": {
                    "value": 7.4,
                    "unit": "pH",
                    "system": "http://unitsofmeasure.org",
                    "code": "[pH]"
                }
            },
            "request": {
                "method": "POST",
                "url": "Observation"
            }
        },
        {
            "resource": {
                "resourceType": "Condition",
                "id": "f433f5d0-43d2-46bc-8d94-790714d9d0ac",
                "meta": {
                    "profile": [
                        "https://www.netzwerk-universitaetsmedizin.de/fhir/StructureDefinition/chronic-neurological-mental-diseases"
                    ]
                },
                "verificationStatus": {
                    "coding": [
                        {
                            "system": "http://terminology.hl7.org/CodeSystem/condition-ver-status",
                            "code": "refuted",
                            "display": "Refuted"
                        },
                        {
                            "system": "http://snomed.info/sct",
                            "code": "410594000",
                            "display": "Definitely NOT present (qualifier value)"
                        }
                    ]
                },
                "category": [
                    {
                        "coding": [
                            {
                                "system": "http://snomed.info/sct",
                                "code": "394591006",
                                "display": "Neurology"
                            },
                            {
                                "system": "http://snomed.info/sct",
                                "code": "394587001",
                                "display": "Psychiatry"
                            }
                        ]
                    }
                ],
                "code": {
                    "coding": [
                        {
                            "system": "http://snomed.info/sct",
                            "code": "69322001",
                            "display": "Psychotic disorder"
                        }
                    ]
                },
                "subject": {
                    "reference": "Patient/0b3937f8-5186-4608-aa4a-6346f6183de6"
                },
                "recordedDate": "2020-10-06"
            },
            "request": {
                "method": "POST",
                "url": "Condition"
            }
        },
        {
            "resource": {
                "resourceType": "Condition",
                "id": "aa3399f8-b0fc-4279-a5f8-253e979a5aca",
                "meta": {
                    "profile": [
                        "https://www.netzwerk-universitaetsmedizin.de/fhir/StructureDefinition/complications-covid-19"
                    ]
                },
                "clinicalStatus": {
                    "coding": [
                        {
                            "system": "http://terminology.hl7.org/CodeSystem/condition-clinical",
                            "code": "active",
                            "display": "Active"
                        }
                    ]
                },
                "verificationStatus": {
                    "coding": [
                        {
                            "system": "http://terminology.hl7.org/CodeSystem/condition-ver-status",
                            "code": "confirmed",
                            "display": "Confirmed"
                        },
                        {
                            "system": "http://snomed.info/sct",
                            "code": "410605003",
                            "display": "Confirmed present (qualifier value)"
                        }
                    ]
                },
                "category": [
                    {
                        "coding": [
                            {
                                "system": "http://snomed.info/sct",
                                "code": "116223007",
                                "display": "Complication (disorder)"
                            }
                        ]
                    }
                ],
                "code": {
                    "coding": [
                        {
                            "system": "http://snomed.info/sct",
                            "code": "111293003",
                            "display": "Venous thrombosis (disorder)"
                        }
                    ]
                },
                "subject": {
                    "reference": "Patient/0b3937f8-5186-4608-aa4a-6346f6183de6"
                },
                "recordedDate": "2020-10-15T16:07:48+02:00"
            },
            "request": {
                "method": "POST",
                "url": "Condition"
            }
        },
        {
            "resource": {
                "resourceType": "Condition",
                "id": "83b2b0ef-5862-46f6-be23-73700d81f49d",
                "meta": {
                    "profile": [
                        "https://www.netzwerk-universitaetsmedizin.de/fhir/StructureDefinition/chronic-liver-diseases"
                    ]
                },
                "clinicalStatus": {
                    "coding": [
                        {
                            "system": "http://terminology.hl7.org/CodeSystem/condition-clinical",
                            "code": "active",
                            "display": "Active"
                        }
                    ]
                },
                "verificationStatus": {
                    "coding": [
                        {
                            "system": "http://terminology.hl7.org/CodeSystem/condition-ver-status",
                            "code": "confirmed",
                            "display": "Confirmed"
                        },
                        {
                            "system": "http://snomed.info/sct",
                            "code": "410605003",
                            "display": "Confirmed present (qualifier value)"
                        }
                    ]
                },
                "category": [
                    {
                        "coding": [
                            {
                                "system": "http://snomed.info/sct",
                                "code": "408472002",
                                "display": "Hepatology"
                            }
                        ]
                    }
                ],
                "code": {
                    "coding": [
                        {
                            "system": "http://snomed.info/sct",
                            "code": "328383001",
                            "display": "Chronic liver disease"
                        }
                    ]
                },
                "subject": {
                    "reference": "Patient/0b3937f8-5186-4608-aa4a-6346f6183de6"
                },
                "recordedDate": "2020-10-06"
            },
            "request": {
                "method": "POST",
                "url": "Condition"
            }
        },
        {
            "resource": {
                "resourceType": "Procedure",
                "id": "ff0c587b-4c1b-4a06-90c8-5a924c710e98",
                "meta": {
                    "profile": [
                        "https://www.netzwerk-universitaetsmedizin.de/fhir/StructureDefinition/apheresis"
                    ]
                },
                "status": "unknown",
                "category": {
                    "coding": [
                        {
                            "system": "http://snomed.info/sct",
                            "code": "277132007",
                            "display": "Therapeutic procedure (procedure)"
                        }
                    ]
                },
                "code": {
                    "coding": [
                        {
                            "system": "http://snomed.info/sct",
                            "code": "127788007",
                            "display": "Apheresis (procedure)"
                        }
                    ],
                    "text": "Apheresis"
                },
                "subject": {
                    "reference": "Patient/0b3937f8-5186-4608-aa4a-6346f6183de6"
                },
                "_performedDateTime": {
                    "extension": [
                        {
                            "url": "http://hl7.org/fhir/StructureDefinition/data-absent-reason",
                            "valueCode": "unknown"
                        }
                    ]
                }
            },
            "request": {
                "method": "POST",
                "url": "Procedure"
            }
        },
        {
            "resource": {
                "resourceType": "Observation",
                "id": "6a78560b-2f7c-4af5-a7bc-3c7d62ca8458",
                "meta": {
                    "profile": [
                        "https://www.netzwerk-universitaetsmedizin.de/fhir/StructureDefinition/carbon-dioxide-partial-pressure"
                    ]
                },
                "identifier": [
                    {
                        "type": {
                            "coding": [
                                {
                                    "system": "http://terminology.hl7.org/CodeSystem/v2-0203",
                                    "code": "OBI"
                                }
                            ]
                        },
                        "system": "https://www.charite.de/fhir/CodeSystem/lab-identifiers",
                        "value": "2019-8_paCO2",
                        "assigner": {
                            "reference": "Organization/Charit\u00e9"
                        }
                    }
                ],
                "status": "final",
                "category": [
                    {
                        "coding": [
                            {
                                "system": "http://loinc.org",
                                "code": "26436-6"
                            },
                            {
                                "system": "http://terminology.hl7.org/CodeSystem/observation-category",
                                "code": "laboratory"
                            },
                            {
                                "system": "http://loinc.org",
                                "code": "18767-4"
                            }
                        ]
                    }
                ],
                "code": {
                    "coding": [
                        {
                            "system": "http://loinc.org",
                            "code": "2019-8",
                            "display": "Carbon dioxide [Partial pressure] in Arterial blood"
                        }
                    ],
                    "text": "Carbon dioxide [Partial pressure] in Arterial blood"
                },
                "subject": {
                    "reference": "Patient/0b3937f8-5186-4608-aa4a-6346f6183de6"
                },
                "effectiveDateTime": "2020-09-21",
                "valueQuantity": {
                    "value": 44,
                    "unit": "mmHg",
                    "system": "http://unitsofmeasure.org",
                    "code": "mm[Hg]"
                }
            },
            "request": {
                "method": "POST",
                "url": "Observation"
            }
        },
        {
            "resource": {
                "resourceType": "MedicationStatement",
                "id": "a85311b0-0489-484f-8ee2-1d6257299ded",
                "meta": {
                    "profile": [
                        "https://www.netzwerk-universitaetsmedizin.de/fhir/StructureDefinition/pharmacological-therapy"
                    ]
                },
                "status": "active",
                "medicationCodeableConcept": {
                    "coding": [
                        {
                            "system": "http://snomed.info/sct",
                            "code": "413591007",
                            "display": "Product containing atazanavir (medicinal product)"
                        },
                        {
                            "system": "http://fhir.de/CodeSystem/bfarm/atc",
                            "code": "J05AE08",
                            "display": "Atazanavir"
                        }
                    ],
                    "text": "Atazanavir"
                },
                "subject": {
                    "reference": "Patient/0b3937f8-5186-4608-aa4a-6346f6183de6"
                },
                "effectiveDateTime": "2020-10-19T08:43:33+02:00"
            },
            "request": {
                "method": "POST",
                "url": "MedicationStatement"
            }
        },
        {
            "resource": {
                "resourceType": "Procedure",
                "id": "ef08432a-e4d8-4c87-bf76-27056a300238",
                "meta": {
                    "profile": [
                        "https://www.netzwerk-universitaetsmedizin.de/fhir/StructureDefinition/prone-position"
                    ]
                },
                "status": "unknown",
                "category": {
                    "coding": [
                        {
                            "system": "http://snomed.info/sct",
                            "code": "225287004",
                            "display": "Procedures relating to positioning and support (procedure)"
                        }
                    ]
                },
                "code": {
                    "coding": [
                        {
                            "system": "http://snomed.info/sct",
                            "code": "431182000",
                            "display": "Placing subject in prone position (procedure)"
                        }
                    ],
                    "text": "Prone position"
                },
                "subject": {
                    "reference": "Patient/0b3937f8-5186-4608-aa4a-6346f6183de6"
                },
                "_performedDateTime": {
                    "extension": [
                        {
                            "url": "http://hl7.org/fhir/StructureDefinition/data-absent-reason",
                            "valueCode": "unknown"
                        }
                    ]
                }
            },
            "request": {
                "method": "POST",
                "url": "Procedure"
            }
        },
        {
            "resource": {
                "resourceType": "Observation",
                "id": "f35f17da-f642-402d-8cf4-ff70607713a7",
                "meta": {
                    "profile": [
                        "https://www.netzwerk-universitaetsmedizin.de/fhir/StructureDefinition/sars-cov-2-iga-ser-pl-ql-ia"
                    ]
                },
                "identifier": [
                    {
                        "type": {
                            "coding": [
                                {
                                    "system": "http://terminology.hl7.org/CodeSystem/v2-0203",
                                    "code": "OBI"
                                }
                            ]
                        },
                        "system": "https://www.charite.de/fhir/CodeSystem/lab-identifiers",
                        "value": "94562-6_SARS-CoV-2-IgA-Ql",
                        "assigner": {
                            "reference": "Organization/Charit\u00e9"
                        }
                    }
                ],
                "status": "final",
                "category": [
                    {
                        "coding": [
                            {
                                "system": "http://loinc.org",
                                "code": "26436-6"
                            },
                            {
                                "system": "http://terminology.hl7.org/CodeSystem/observation-category",
                                "code": "laboratory"
                            }
                        ]
                    }
                ],
                "code": {
                    "coding": [
                        {
                            "system": "http://loinc.org",
                            "code": "94562-6",
                            "display": "SARS-CoV-2 (COVID-19) IgA Ab [Presence] in Serum or Plasma by Immunoassay"
                        }
                    ],
                    "text": "SARS-CoV-2 IgA antibodies qualitative"
                },
                "subject": {
                    "reference": "Patient/0b3937f8-5186-4608-aa4a-6346f6183de6"
                },
                "effectiveDateTime": "2020-10-19T08:43:33+02:00",
                "valueCodeableConcept": {
                    "coding": [
                        {
                            "system": "http://snomed.info/sct",
                            "code": "260373001",
                            "display": "Detected (qualifier value)"
                        }
                    ]
                }
            },
            "request": {
                "method": "POST",
                "url": "Observation"
            }
        },
        {
            "resource": {
                "resourceType": "Observation",
                "id": "4b5cfc04-0d92-47f6-8bd0-be820286db01",
                "meta": {
                    "profile": [
                        "https://www.netzwerk-universitaetsmedizin.de/fhir/StructureDefinition/frailty-score"
                    ]
                },
                "identifier": [
                    {
                        "type": {
                            "coding": [
                                {
                                    "system": "http://terminology.hl7.org/CodeSystem/v2-0203",
                                    "code": "OBI"
                                }
                            ]
                        },
                        "system": "https://www.charite.de/fhir/CodeSystem/observation-identifiers",
                        "value": "763264000_FrailtyScaleScore",
                        "assigner": {
                            "reference": "Organization/Charit\u00e9"
                        }
                    }
                ],
                "status": "final",
                "category": [
                    {
                        "coding": [
                            {
                                "system": "http://terminology.hl7.org/CodeSystem/observation-category",
                                "code": "survey"
                            }
                        ]
                    }
                ],
                "code": {
                    "coding": [
                        {
                            "system": "http://snomed.info/sct",
                            "code": "763264000",
                            "display": "Canadian Study of Health and Aging Clinical Frailty Scale score"
                        }
                    ],
                    "text": "Frailty Scale Score"
                },
                "subject": {
                    "reference": "Patient/0b3937f8-5186-4608-aa4a-6346f6183de6"
                },
                "effectiveDateTime": "2020-10-02",
                "valueCodeableConcept": {
                    "coding": [
                        {
                            "system": "https://www.netzwerk-universitaetsmedizin.de/fhir/CodeSystem/frailty-score",
                            "code": "7",
                            "display": "Severely Frail"
                        }
                    ]
                },
                "method": {
                    "coding": [
                        {
                            "system": "http://snomed.info/sct",
                            "code": "445414007",
                            "display": "Canadian Study of Health and Aging clinical frailty scale"
                        }
                    ]
                }
            },
            "request": {
                "method": "POST",
                "url": "Observation"
            }
        },
        {
            "resource": {
                "resourceType": "Observation",
                "id": "611b9cc3-d006-4ee3-8ca6-de1888bba24b",
                "meta": {
                    "profile": [
                        "https://www.netzwerk-universitaetsmedizin.de/fhir/StructureDefinition/discharge-disposition"
                    ]
                },
                "identifier": [
                    {
                        "type": {
                            "coding": [
                                {
                                    "system": "http://terminology.hl7.org/CodeSystem/v2-0203",
                                    "code": "OBI"
                                }
                            ]
                        },
                        "system": "https://www.charite.de/fhir/CodeSystem/observation-identifiers",
                        "value": "55128-3_DischargeDisposition",
                        "assigner": {
                            "reference": "Organization/Charit\u00e9"
                        }
                    }
                ],
                "status": "final",
                "category": [
                    {
                        "coding": [
                            {
                                "system": "http://terminology.hl7.org/CodeSystem/observation-category",
                                "code": "social-history"
                            }
                        ]
                    }
                ],
                "code": {
                    "coding": [
                        {
                            "system": "http://loinc.org",
                            "code": "55128-3",
                            "display": "Discharge disposition"
                        }
                    ],
                    "text": "Type of discharge"
                },
                "subject": {
                    "reference": "Patient/0b3937f8-5186-4608-aa4a-6346f6183de6"
                },
                "effectiveDateTime": "2020-10-16T08:49:21+02:00",
                "valueCodeableConcept": {
                    "coding": [
                        {
                            "system": "http://snomed.info/sct",
                            "code": "371827001",
                            "display": "Patient discharged alive (finding)"
                        }
                    ]
                }
            },
            "request": {
                "method": "POST",
                "url": "Observation"
            }
        },
        {
            "resource": {
                "resourceType": "Observation",
                "id": "6fa9e2be-d15a-4e77-81fc-056dda521875",
                "meta": {
                    "profile": [
                        "https://www.netzwerk-universitaetsmedizin.de/fhir/StructureDefinition/oxygen-saturation"
                    ]
                },
                "identifier": [
                    {
                        "type": {
                            "coding": [
                                {
                                    "system": "http://terminology.hl7.org/CodeSystem/v2-0203",
                                    "code": "OBI"
                                }
                            ]
                        },
                        "system": "https://www.charite.de/fhir/CodeSystem/lab-identifiers",
                        "value": "2708-6_oxygenSaturation",
                        "assigner": {
                            "reference": "Organization/Charit\u00e9"
                        }
                    }
                ],
                "status": "final",
                "category": [
                    {
                        "coding": [
                            {
                                "system": "http://terminology.hl7.org/CodeSystem/observation-category",
                                "code": "vital-signs"
                            }
                        ]
                    }
                ],
                "code": {
                    "coding": [
                        {
                            "system": "http://loinc.org",
                            "code": "2708-6",
                            "display": "Oxygen saturation in Arterial blood"
                        }
                    ],
                    "text": "Oxygen saturation in Arterial blood"
                },
                "subject": {
                    "reference": "Patient/0b3937f8-5186-4608-aa4a-6346f6183de6"
                },
                "effectiveDateTime": "2020-09-21",
                "valueQuantity": {
                    "value": 98,
                    "unit": "%",
                    "system": "http://unitsofmeasure.org",
                    "code": "%"
                }
            },
            "request": {
                "method": "POST",
                "url": "Observation"
            }
        },
        {
            "resource": {
                "resourceType": "Observation",
                "id": "c9f96dd3-a77a-4aa9-9b12-43cd1972d9a4",
                "meta": {
                    "profile": [
                        "https://www.netzwerk-universitaetsmedizin.de/fhir/StructureDefinition/inhaled-oxygen-concentration"
                    ]
                },
                "identifier": [
                    {
                        "type": {
                            "coding": [
                                {
                                    "system": "http://terminology.hl7.org/CodeSystem/v2-0203",
                                    "code": "OBI"
                                }
                            ]
                        },
                        "system": "https://www.charite.de/fhir/CodeSystem/lab-identifiers",
                        "value": "3150-0_FiO2",
                        "assigner": {
                            "reference": "Organization/Charit\u00e9"
                        }
                    }
                ],
                "status": "final",
                "category": [
                    {
                        "coding": [
                            {
                                "system": "http://loinc.org",
                                "code": "26436-6"
                            },
                            {
                                "system": "http://terminology.hl7.org/CodeSystem/observation-category",
                                "code": "laboratory"
                            },
                            {
                                "system": "http://loinc.org",
                                "code": "18767-4"
                            }
                        ]
                    }
                ],
                "code": {
                    "coding": [
                        {
                            "system": "http://loinc.org",
                            "code": "3150-0",
                            "display": "Inhaled oxygen concentration"
                        }
                    ],
                    "text": "Inhaled oxygen concentration"
                },
                "subject": {
                    "reference": "Patient/0b3937f8-5186-4608-aa4a-6346f6183de6"
                },
                "effectiveDateTime": "2020-09-21",
                "valueQuantity": {
                    "value": 21,
                    "unit": "%",
                    "system": "http://unitsofmeasure.org",
                    "code": "%"
                }
            },
            "request": {
                "method": "POST",
                "url": "Observation"
            }
        },
        {
            "resource": {
                "resourceType": "Condition",
                "id": "84f75240-befd-4501-89a3-231ccbbae44c",
                "meta": {
                    "profile": [
                        "https://www.netzwerk-universitaetsmedizin.de/fhir/StructureDefinition/dependence-on-ventilator"
                    ]
                },
                "clinicalStatus": {
                    "coding": [
                        {
                            "system": "http://terminology.hl7.org/CodeSystem/condition-clinical",
                            "code": "active",
                            "display": "Active"
                        }
                    ]
                },
                "verificationStatus": {
                    "coding": [
                        {
                            "system": "http://terminology.hl7.org/CodeSystem/condition-ver-status",
                            "code": "confirmed",
                            "display": "Confirmed"
                        },
                        {
                            "system": "http://snomed.info/sct",
                            "code": "410605003",
                            "display": "Confirmed present (qualifier value)"
                        }
                    ]
                },
                "category": [
                    {
                        "coding": [
                            {
                                "system": "http://snomed.info/sct",
                                "code": "404989005",
                                "display": "Ventilation status (observable entity)"
                            }
                        ]
                    }
                ],
                "code": {
                    "coding": [
                        {
                            "system": "http://snomed.info/sct",
                            "code": "444932008",
                            "display": "Dependence on ventilator (finding)"
                        }
                    ]
                },
                "subject": {
                    "reference": "Patient/0b3937f8-5186-4608-aa4a-6346f6183de6"
                },
                "recordedDate": "2020-10-16T08:49:21+02:00"
            },
            "request": {
                "method": "POST",
                "url": "Condition"
            }
        },
        {
            "resource": {
                "resourceType": "DiagnosticReport",
                "id": "ef35ac3c-da77-42d1-8d6b-284564adad43",
                "meta": {
                    "profile": [
                        "https://www.netzwerk-universitaetsmedizin.de/fhir/StructureDefinition/diagnostic-report-radiology"
                    ]
                },
                "status": "final",
                "category": [
                    {
                        "coding": [
                            {
                                "system": "http://loinc.org",
                                "code": "18726-0",
                                "display": "Radiology studies (set)"
                            },
                            {
                                "system": "http://terminology.hl7.org/CodeSystem/v2-0074",
                                "code": "RAD",
                                "display": "Radiology"
                            }
                        ]
                    }
                ],
                "code": {
                    "coding": [
                        {
                            "system": "http://loinc.org",
                            "code": "18748-4",
                            "display": "Diagnostic imaging study"
                        }
                    ]
                },
                "subject": {
                    "reference": "Patient/0b3937f8-5186-4608-aa4a-6346f6183de6"
                },
                "effectiveDateTime": "2020-09-30",
                "conclusion": "COVID-19-typischer Befund",
                "conclusionCode": [
                    {
                        "coding": [
                            {
                                "system": "http://snomed.info/sct",
                                "code": "118247008:{363713009=263654008,42752001=840539006}",
                                "display": "|Radiologic finding (finding)|:{|Has interpretation (attribute)|=|Abnormal (qualifier value)|,|Due to (attribute)|=|Disease caused by severe acute respiratory syndrome coronavirus 2 (disorder)|}"
                            }
                        ]
                    }
                ]
            },
            "request": {
                "method": "POST",
                "url": "DiagnosticReport"
            }
        },
        {
            "resource": {
                "resourceType": "Observation",
                "id": "220767b9-5760-40b8-8741-8772dae04c3f",
                "meta": {
                    "profile": [
                        "https://www.netzwerk-universitaetsmedizin.de/fhir/StructureDefinition/sars-cov-2-ab-pnl-ser-pl-ia"
                    ]
                },
                "identifier": [
                    {
                        "type": {
                            "coding": [
                                {
                                    "system": "http://terminology.hl7.org/CodeSystem/v2-0203",
                                    "code": "OBI"
                                }
                            ]
                        },
                        "system": "https://www.charite.de/fhir/CodeSystem/lab-identifiers",
                        "value": "94504-8_SARS-CoV-2-Ab-Panel",
                        "assigner": {
                            "reference": "Organization/Charit\u00e9"
                        }
                    }
                ],
                "status": "final",
                "category": [
                    {
                        "coding": [
                            {
                                "system": "http://loinc.org",
                                "code": "26436-6"
                            },
                            {
                                "system": "http://terminology.hl7.org/CodeSystem/observation-category",
                                "code": "laboratory"
                            }
                        ]
                    }
                ],
                "code": {
                    "coding": [
                        {
                            "system": "http://loinc.org",
                            "code": "94504-8",
                            "display": "SARS-CoV-2 (COVID-19) Ab panel - Serum or Plasma by Immunoassay"
                        }
                    ],
                    "text": "SARS-CoV-2 antibodies panel"
                },
                "subject": {
                    "reference": "Patient/0b3937f8-5186-4608-aa4a-6346f6183de6"
                },
                "effectiveDateTime": "2020-10-19T08:43:33+02:00",
                "hasMember": [
                    {
                        "reference": "Observation/22732de8-3eb6-477e-81d6-28fb906b3e4e"
                    },
                    {
                        "reference": "Observation/70ca7d00-0d8b-42bb-9508-a8fc76e5c7ad"
                    },
                    {
                        "reference": "Observation/7e746710-fad4-474b-8a28-422863f3a2b8"
                    },
                    {
                        "reference": "Observation/f35f17da-f642-402d-8cf4-ff70607713a7"
                    },
                    {
                        "reference": "Observation/7297b0fd-3be7-4b88-a63a-6ba651152c41"
                    },
                    {
                        "reference": "Observation/da1fa3fe-a8a3-44b6-94c6-3497269436ec"
                    },
                    {
                        "reference": "Observation/b5adbc53-a1ee-4a57-9ede-fae4b4462bfb"
                    },
                    {
                        "reference": "Observation/b08b1687-2ea1-4b14-9473-dd04389169ec"
                    }
                ]
            },
            "request": {
                "method": "POST",
                "url": "Observation"
            }
        },
        {
            "resource": {
                "resourceType": "Observation",
                "id": "b69cf35d-6d43-4881-9189-d5ea00dcf573",
                "meta": {
                    "profile": [
                        "https://www.netzwerk-universitaetsmedizin.de/fhir/StructureDefinition/known-exposure"
                    ]
                },
                "identifier": [
                    {
                        "type": {
                            "coding": [
                                {
                                    "system": "http://terminology.hl7.org/CodeSystem/v2-0203",
                                    "code": "OBI"
                                }
                            ]
                        },
                        "system": "https://www.charite.de/fhir/CodeSystem/observation-identifiers",
                        "value": "88636-6_KnownExposure",
                        "assigner": {
                            "reference": "Organization/Charit\u00e9"
                        }
                    }
                ],
                "status": "final",
                "category": [
                    {
                        "coding": [
                            {
                                "system": "http://terminology.hl7.org/CodeSystem/observation-category",
                                "code": "social-history"
                            }
                        ]
                    }
                ],
                "code": {
                    "coding": [
                        {
                            "system": "http://loinc.org",
                            "code": "88636-6",
                            "display": "Known exposure [Identifier]"
                        }
                    ],
                    "text": "Known exposure"
                },
                "subject": {
                    "reference": "Patient/0b3937f8-5186-4608-aa4a-6346f6183de6"
                },
                "effectiveDateTime": "2020-10-04",
                "valueCodeableConcept": {
                    "coding": [
                        {
                            "system": "http://snomed.info/sct",
                            "code": "373067005",
                            "display": "No (qualifier value)"
                        }
                    ]
                }
            },
            "request": {
                "method": "POST",
                "url": "Observation"
            }
        }
    ]
}