{
    "resourceType": "Bundle",
    "id": "0b4ba045-6346-40c8-b894-9fa8b942bb8e",
    "meta": {
        "profile": [
            "https://www.netzwerk-universitaetsmedizin.de/fhir/StructureDefinition/gecco-bundle"
        ]
    },
    "type": "transaction",
    "timestamp": "2022-09-07T00:50:46Z",
    "entry": [
        {
            "resource": {
                "resourceType": "Condition",
                "id": "diabetes-mellitus-present",
                "meta": {
                    "profile": [
                        "https://www.netzwerk-universitaetsmedizin.de/fhir/StructureDefinition/diabetes-mellitus"
                    ]
                },
                "category": [
                    {
                        "coding": [
                            {
                                "code": "408475000",
                                "system": "http://snomed.info/sct",
                                "display": "Diabetic medicine"
                            }
                        ]
                    }
                ],
                "verificationStatus": {
                    "coding": [
                        {
                            "system": "http://terminology.hl7.org/CodeSystem/condition-ver-status",
                            "code": "confirmed",
                            "display": "Confirmed"
                        },
                        {
                            "system": "http://snomed.info/sct",
                            "code": "410605003",
                            "display": "Confirmed present (qualifier value)"
                        }
                    ]
                },
                "clinicalStatus": {
                    "coding": [
                        {
                            "code": "active",
                            "system": "http://terminology.hl7.org/CodeSystem/condition-clinical",
                            "display": "Active"
                        }
                    ]
                },
                "code": {
                    "coding": [
                        {
                            "code": "73211009",
                            "system": "http://snomed.info/sct",
                            "display": "Diabetes mellitus"
                        }
                    ]
                },
                "subject": {
                    "reference": "Patient/4ad4f71f-c9fd-403a-b2cd-73573021c385"
                },
                "recordedDate": "2020-10-06"
            },
            "request": {
                "method": "POST",
                "url": "Condition"
            }
        },
        {
            "resource": {
                "resourceType": "Observation",
                "id": "patient-in-icu-yes",
                "meta": {
                    "profile": [
                        "https://www.netzwerk-universitaetsmedizin.de/fhir/StructureDefinition/patient-in-icu"
                    ]
                },
                "status": "final",
                "code": {
                    "coding": [
                        {
                            "code": "95420-6",
                            "system": "http://loinc.org",
                            "display": "Whether the patient was admitted to intensive care unit (ICU) for condition of interest"
                        }
                    ]
                },
                "valueCodeableConcept": {
                    "coding": [
                        {
                            "system": "http://snomed.info/sct",
                            "code": "373066001",
                            "display": "Yes (qualifier value)"
                        }
                    ]
                },
                "category": [
                    {
                        "coding": [
                            {
                                "code": "survey",
                                "system": "http://terminology.hl7.org/CodeSystem/observation-category",
                                "display": "Survey"
                            }
                        ]
                    }
                ],
                "subject": {
                    "reference": "Patient/4ad4f71f-c9fd-403a-b2cd-73573021c385"
                },
                "effectiveDateTime": "2020-10-14"
            },
            "request": {
                "method": "POST",
                "url": "Observation"
            }
        },
        {
            "resource": {
                "resourceType": "Procedure",
                "id": "apheresis-not-done",
                "meta": {
                    "profile": [
                        "https://www.netzwerk-universitaetsmedizin.de/fhir/StructureDefinition/apheresis"
                    ]
                },
                "status": "not-done",
                "category": {
                    "coding": [
                        {
                            "code": "277132007",
                            "system": "http://snomed.info/sct",
                            "display": "Therapeutic procedure (procedure)"
                        }
                    ]
                },
                "code": {
                    "coding": [
                        {
                            "code": "127788007",
                            "system": "http://snomed.info/sct",
                            "display": "Apheresis (procedure)"
                        }
                    ],
                    "text": "Apheresis"
                },
                "subject": {
                    "reference": "Patient/4ad4f71f-c9fd-403a-b2cd-73573021c385"
                },
                "_performedDateTime": {
                    "extension": [
                        {
                            "url": "http://hl7.org/fhir/StructureDefinition/data-absent-reason",
                            "valueCode": "not-performed"
                        }
                    ]
                }
            },
            "request": {
                "method": "POST",
                "url": "Procedure"
            }
        },
        {
            "resource": {
                "resourceType": "Observation",
                "id": "pH-arterial",
                "meta": {
                    "profile": [
                        "https://www.netzwerk-universitaetsmedizin.de/fhir/StructureDefinition/pH"
                    ]
                },
                "identifier": [
                    {
                        "type": {
                            "coding": [
                                {
                                    "system": "http://terminology.hl7.org/CodeSystem/v2-0203",
                                    "code": "OBI"
                                }
                            ]
                        },
                        "system": "https://www.charite.de/fhir/CodeSystem/lab-identifiers",
                        "value": "2744-1_pH",
                        "assigner": {
                            "reference": "Organization/Charit\u00e9"
                        }
                    }
                ],
                "category": [
                    {
                        "coding": [
                            {
                                "system": "http://loinc.org",
                                "code": "26436-6"
                            },
                            {
                                "system": "http://terminology.hl7.org/CodeSystem/observation-category",
                                "code": "laboratory"
                            },
                            {
                                "code": "18767-4",
                                "system": "http://loinc.org"
                            }
                        ]
                    }
                ],
                "valueQuantity": {
                    "system": "http://unitsofmeasure.org",
                    "code": "[pH]",
                    "value": 7.4,
                    "unit": "pH"
                },
                "status": "final",
                "code": {
                    "coding": [
                        {
                            "code": "2744-1",
                            "system": "http://loinc.org",
                            "display": "pH of Arterial blood"
                        }
                    ],
                    "text": "pH of Arterial blood"
                },
                "subject": {
                    "reference": "Patient/4ad4f71f-c9fd-403a-b2cd-73573021c385"
                },
                "effectiveDateTime": "2020-09-21"
            },
            "request": {
                "method": "POST",
                "url": "Observation"
            }
        },
        {
            "resource": {
                "resourceType": "Observation",
                "id": "sars-cov-2-iga-ser-pl-ql-ia",
                "meta": {
                    "profile": [
                        "https://www.netzwerk-universitaetsmedizin.de/fhir/StructureDefinition/sars-cov-2-iga-ser-pl-ql-ia"
                    ]
                },
                "identifier": [
                    {
                        "type": {
                            "coding": [
                                {
                                    "system": "http://terminology.hl7.org/CodeSystem/v2-0203",
                                    "code": "OBI"
                                }
                            ]
                        },
                        "system": "https://www.charite.de/fhir/CodeSystem/lab-identifiers",
                        "value": "94562-6_SARS-CoV-2-IgA-Ql",
                        "assigner": {
                            "reference": "Organization/Charit\u00e9"
                        }
                    }
                ],
                "category": [
                    {
                        "coding": [
                            {
                                "system": "http://loinc.org",
                                "code": "26436-6"
                            },
                            {
                                "system": "http://terminology.hl7.org/CodeSystem/observation-category",
                                "code": "laboratory"
                            }
                        ]
                    }
                ],
                "code": {
                    "coding": [
                        {
                            "code": "94562-6",
                            "system": "http://loinc.org",
                            "display": "SARS-CoV-2 (COVID-19) IgA Ab [Presence] in Serum or Plasma by Immunoassay"
                        }
                    ],
                    "text": "SARS-CoV-2 IgA antibodies qualitative"
                },
                "status": "final",
                "subject": {
                    "reference": "Patient/4ad4f71f-c9fd-403a-b2cd-73573021c385"
                },
                "effectiveDateTime": "2020-10-19T08:43:33+02:00",
                "valueCodeableConcept": {
                    "coding": [
                        {
                            "code": "260373001",
                            "system": "http://snomed.info/sct",
                            "display": "Detected (qualifier value)"
                        }
                    ]
                }
            },
            "request": {
                "method": "POST",
                "url": "Observation"
            }
        },
        {
            "resource": {
                "resourceType": "Procedure",
                "id": "prone-position-in-progress",
                "meta": {
                    "profile": [
                        "https://www.netzwerk-universitaetsmedizin.de/fhir/StructureDefinition/prone-position"
                    ]
                },
                "status": "in-progress",
                "category": {
                    "coding": [
                        {
                            "code": "225287004",
                            "system": "http://snomed.info/sct",
                            "display": "Procedures relating to positioning and support (procedure)"
                        }
                    ]
                },
                "code": {
                    "coding": [
                        {
                            "code": "431182000",
                            "system": "http://snomed.info/sct",
                            "display": "Placing subject in prone position (procedure)"
                        }
                    ],
                    "text": "Prone position"
                },
                "subject": {
                    "reference": "Patient/4ad4f71f-c9fd-403a-b2cd-73573021c385"
                },
                "_performedDateTime": {
                    "extension": [
                        {
                            "url": "http://hl7.org/fhir/StructureDefinition/data-absent-reason",
                            "valueCode": "unknown"
                        }
                    ]
                }
            },
            "request": {
                "method": "POST",
                "url": "Procedure"
            }
        },
        {
            "resource": {
                "resourceType": "Observation",
                "id": "body-temperature-bladder",
                "meta": {
                    "profile": [
                        "https://www.netzwerk-universitaetsmedizin.de/fhir/StructureDefinition/body-temperature"
                    ]
                },
                "category": [
                    {
                        "coding": [
                            {
                                "code": "vital-signs",
                                "system": "http://terminology.hl7.org/CodeSystem/observation-category"
                            }
                        ]
                    }
                ],
                "code": {
                    "coding": [
                        {
                            "code": "8310-5",
                            "system": "http://loinc.org",
                            "display": "Body temperature"
                        },
                        {
                            "code": "8334-5",
                            "system": "http://loinc.org",
                            "display": "Body temperature - Urinary bladder"
                        },
                        {
                            "code": "386725007",
                            "system": "http://snomed.info/sct",
                            "display": "Body temperature (observable entity)"
                        },
                        {
                            "code": "698832009",
                            "system": "http://snomed.info/sct",
                            "display": "Core body temperature measured at urinary bladder (observable entity)"
                        }
                    ],
                    "text": "Body temperature"
                },
                "valueQuantity": {
                    "system": "http://unitsofmeasure.org",
                    "code": "Cel",
                    "value": 36.8,
                    "unit": "\u00b0C"
                },
                "identifier": [
                    {
                        "type": {
                            "coding": [
                                {
                                    "code": "OBI",
                                    "system": "http://terminology.hl7.org/CodeSystem/v2-0203"
                                }
                            ]
                        },
                        "system": "https://www.charite.de/fhir/CodeSystem/observation-identifiers",
                        "value": "8310-5_BodyTemperature",
                        "assigner": {
                            "reference": "Organization/Charit\u00e9"
                        }
                    }
                ],
                "status": "final",
                "subject": {
                    "reference": "Patient/4ad4f71f-c9fd-403a-b2cd-73573021c385"
                },
                "effectiveDateTime": "2021-04-14",
                "bodySite": {
                    "coding": [
                        {
                            "code": "89837001",
                            "system": "http://snomed.info/sct",
                            "display": "Urinary bladder structure (body structure)"
                        }
                    ]
                }
            },
            "request": {
                "method": "POST",
                "url": "Observation"
            }
        },
        {
            "resource": {
                "resourceType": "Procedure",
                "id": "extracorporeal-membrane-oxygenation-completed",
                "meta": {
                    "profile": [
                        "https://www.netzwerk-universitaetsmedizin.de/fhir/StructureDefinition/extracorporeal-membrane-oxygenation"
                    ]
                },
                "status": "completed",
                "category": {
                    "coding": [
                        {
                            "code": "277132007",
                            "system": "http://snomed.info/sct",
                            "display": "Therapeutic procedure (procedure)"
                        }
                    ]
                },
                "code": {
                    "coding": [
                        {
                            "code": "233573008",
                            "system": "http://snomed.info/sct",
                            "display": "Extracorporeal membrane oxygenation (procedure)"
                        }
                    ],
                    "text": "ECMO"
                },
                "subject": {
                    "reference": "Patient/4ad4f71f-c9fd-403a-b2cd-73573021c385"
                },
                "_performedDateTime": {
                    "extension": [
                        {
                            "url": "http://hl7.org/fhir/StructureDefinition/data-absent-reason",
                            "valueCode": "unknown"
                        }
                    ]
                }
            },
            "request": {
                "method": "POST",
                "url": "Procedure"
            }
        },
        {
            "resource": {
                "resourceType": "Observation",
                "id": "carbon-dioxide-partial-pressure",
                "meta": {
                    "profile": [
                        "https://www.netzwerk-universitaetsmedizin.de/fhir/StructureDefinition/carbon-dioxide-partial-pressure"
                    ]
                },
                "identifier": [
                    {
                        "type": {
                            "coding": [
                                {
                                    "system": "http://terminology.hl7.org/CodeSystem/v2-0203",
                                    "code": "OBI"
                                }
                            ]
                        },
                        "system": "https://www.charite.de/fhir/CodeSystem/lab-identifiers",
                        "value": "2019-8_paCO2",
                        "assigner": {
                            "reference": "Organization/Charit\u00e9"
                        }
                    }
                ],
                "category": [
                    {
                        "coding": [
                            {
                                "system": "http://loinc.org",
                                "code": "26436-6"
                            },
                            {
                                "system": "http://terminology.hl7.org/CodeSystem/observation-category",
                                "code": "laboratory"
                            },
                            {
                                "code": "18767-4",
                                "system": "http://loinc.org"
                            }
                        ]
                    }
                ],
                "valueQuantity": {
                    "system": "http://unitsofmeasure.org",
                    "code": "mm[Hg]",
                    "value": 44,
                    "unit": "mmHg"
                },
                "status": "final",
                "code": {
                    "coding": [
                        {
                            "code": "2019-8",
                            "system": "http://loinc.org",
                            "display": "Carbon dioxide [Partial pressure] in Arterial blood"
                        }
                    ],
                    "text": "Carbon dioxide [Partial pressure] in Arterial blood"
                },
                "subject": {
                    "reference": "Patient/4ad4f71f-c9fd-403a-b2cd-73573021c385"
                },
                "effectiveDateTime": "2020-09-21"
            },
            "request": {
                "method": "POST",
                "url": "Observation"
            }
        },
        {
            "resource": {
                "resourceType": "Observation",
                "id": "frailty-score-mildly-frail",
                "meta": {
                    "profile": [
                        "https://www.netzwerk-universitaetsmedizin.de/fhir/StructureDefinition/frailty-score"
                    ]
                },
                "category": [
                    {
                        "coding": [
                            {
                                "code": "survey",
                                "system": "http://terminology.hl7.org/CodeSystem/observation-category"
                            }
                        ]
                    }
                ],
                "code": {
                    "coding": [
                        {
                            "code": "763264000",
                            "system": "http://snomed.info/sct",
                            "display": "Canadian Study of Health and Aging Clinical Frailty Scale score"
                        }
                    ],
                    "text": "Frailty Scale Score"
                },
                "status": "final",
                "subject": {
                    "reference": "Patient/4ad4f71f-c9fd-403a-b2cd-73573021c385"
                },
                "effectiveDateTime": "2020-06-16",
                "valueCodeableConcept": {
                    "coding": [
                        {
                            "code": "5",
                            "system": "https://www.netzwerk-universitaetsmedizin.de/fhir/CodeSystem/frailty-score",
                            "display": "Mildly Frail"
                        }
                    ]
                },
                "method": {
                    "coding": [
                        {
                            "code": "445414007",
                            "system": "http://snomed.info/sct",
                            "display": "Canadian Study of Health and Aging clinical frailty scale (assessment scale)"
                        }
                    ]
                }
            },
            "request": {
                "method": "POST",
                "url": "Observation"
            }
        },
        {
            "resource": {
                "resourceType": "Patient",
                "id": "4ad4f71f-c9fd-403a-b2cd-73573021c385",
                "meta": {
                    "profile": [
                        "https://www.netzwerk-universitaetsmedizin.de/fhir/StructureDefinition/Patient"
                    ]
                },
                "extension": [
                    {
                        "url": "https://www.netzwerk-universitaetsmedizin.de/fhir/StructureDefinition/ethnic-group",
                        "valueCoding": {
                            "code": "26242008",
                            "system": "http://snomed.info/sct",
                            "display": "Mixed (qualifier value)"
                        }
                    },
                    {
                        "url": "https://www.netzwerk-universitaetsmedizin.de/fhir/StructureDefinition/age",
                        "extension": [
                            {
                                "url": "dateTimeOfDocumentation",
                                "valueDateTime": "2022-09-06"
                            },
                            {
                                "url": "age",
                                "valueAge": {
                                    "value": 44,
                                    "code": "a",
                                    "system": "http://unitsofmeasure.org",
                                    "unit": "years"
                                }
                            }
                        ]
                    }
                ],
                "identifier": [
                    {
                        "type": {
                            "coding": [
                                {
                                    "system": "http://terminology.hl7.org/CodeSystem/v2-0203",
                                    "code": "ANON"
                                }
                            ]
                        },
                        "system": "http://www.netzwerk-universitaetsmedizin.de/sid/bloom-filter",
                        "value": ""
                    }
                ],
                "gender": "female",
                "birthDate": "1978-01-19"
            },
            "request": {
                "method": "PUT",
                "url": "Patient/4ad4f71f-c9fd-403a-b2cd-73573021c385"
            }
        },
        {
            "resource": {
                "resourceType": "MedicationStatement",
                "id": "pharmacological-therapy-atazanavir-active",
                "meta": {
                    "profile": [
                        "https://www.netzwerk-universitaetsmedizin.de/fhir/StructureDefinition/pharmacological-therapy"
                    ]
                },
                "status": "active",
                "medicationCodeableConcept": {
                    "coding": [
                        {
                            "code": "413591007",
                            "system": "http://snomed.info/sct",
                            "display": "Product containing atazanavir (medicinal product)"
                        },
                        {
                            "code": "J05AE08",
                            "system": "http://fhir.de/CodeSystem/bfarm/atc",
                            "display": "Atazanavir"
                        }
                    ],
                    "text": "Atazanavir"
                },
                "subject": {
                    "reference": "Patient/4ad4f71f-c9fd-403a-b2cd-73573021c385"
                },
                "effectiveDateTime": "2020-10-19T08:43:33+02:00"
            },
            "request": {
                "method": "POST",
                "url": "MedicationStatement"
            }
        },
        {
            "resource": {
                "resourceType": "MedicationStatement",
                "id": "pharmacological-therapy-immunoglobulins-active",
                "meta": {
                    "profile": [
                        "https://www.netzwerk-universitaetsmedizin.de/fhir/StructureDefinition/pharmacological-therapy-immunoglobulins"
                    ]
                },
                "medicationCodeableConcept": {
                    "coding": [
                        {
                            "code": "333710000",
                            "system": "http://snomed.info/sct",
                            "display": "Product containing immunoglobulin (product)"
                        },
                        {
                            "code": "J06B",
                            "system": "http://fhir.de/CodeSystem/bfarm/atc",
                            "display": "IMMUNGLOBULINE"
                        }
                    ],
                    "text": "immunoglobulins"
                },
                "status": "active",
                "subject": {
                    "reference": "Patient/4ad4f71f-c9fd-403a-b2cd-73573021c385"
                },
                "effectiveDateTime": "2020-10-19T08:43:33+02:00"
            },
            "request": {
                "method": "POST",
                "url": "MedicationStatement"
            }
        },
        {
            "resource": {
                "resourceType": "MedicationStatement",
                "id": "pharmacological-therapy-anticoagulants",
                "meta": {
                    "profile": [
                        "https://www.netzwerk-universitaetsmedizin.de/fhir/StructureDefinition/pharmacological-therapy-anticoagulants"
                    ]
                },
                "reasonCode": [
                    {
                        "coding": [
                            {
                                "system": "http://snomed.info/sct",
                                "code": "360271000",
                                "display": "Prophylaxis - procedure intent (qualifier value)"
                            }
                        ]
                    }
                ],
                "status": "active",
                "medicationCodeableConcept": {
                    "coding": [
                        {
                            "code": "81839001",
                            "system": "http://snomed.info/sct",
                            "display": "Medicinal product acting as anticoagulant agent (product)"
                        },
                        {
                            "code": "B01AB01",
                            "system": "http://fhir.de/CodeSystem/bfarm/atc",
                            "display": "Heparin"
                        }
                    ],
                    "text": "Atazanavir"
                },
                "subject": {
                    "reference": "Patient/4ad4f71f-c9fd-403a-b2cd-73573021c385"
                },
                "effectiveDateTime": "2020-10-19T08:43:33+02:00"
            },
            "request": {
                "method": "POST",
                "url": "MedicationStatement"
            }
        },
        {
            "resource": {
                "resourceType": "Observation",
                "id": "history-of-travel-no",
                "meta": {
                    "profile": [
                        "https://www.netzwerk-universitaetsmedizin.de/fhir/StructureDefinition/history-of-travel"
                    ]
                },
                "category": [
                    {
                        "coding": [
                            {
                                "code": "social-history",
                                "system": "http://terminology.hl7.org/CodeSystem/observation-category"
                            }
                        ]
                    }
                ],
                "code": {
                    "coding": [
                        {
                            "code": "8691-8",
                            "system": "http://loinc.org",
                            "display": "History of Travel"
                        },
                        {
                            "code": "443846001",
                            "system": "http://snomed.info/sct",
                            "display": "Detail of history of travel (observable entity)"
                        }
                    ],
                    "text": "History of travel"
                },
                "identifier": [
                    {
                        "type": {
                            "coding": [
                                {
                                    "code": "OBI",
                                    "system": "http://terminology.hl7.org/CodeSystem/v2-0203"
                                }
                            ]
                        },
                        "system": "https://www.charite.de/fhir/CodeSystem/observation-identifiers",
                        "value": "8691-8_HistoryOfTravel",
                        "assigner": {
                            "reference": "Organization/Charit\u00e9"
                        }
                    }
                ],
                "status": "final",
                "subject": {
                    "reference": "Patient/4ad4f71f-c9fd-403a-b2cd-73573021c385"
                },
                "effectiveDateTime": "2020-11-09T12:57:06+01:00",
                "valueCodeableConcept": {
                    "coding": [
                        {
                            "code": "373067005",
                            "system": "http://snomed.info/sct",
                            "display": "No (qualifier value)"
                        }
                    ]
                }
            },
            "request": {
                "method": "POST",
                "url": "Observation"
            }
        },
        {
            "resource": {
                "resourceType": "Condition",
                "id": "cardiovascular-disease-heart-failure-present",
                "meta": {
                    "profile": [
                        "https://www.netzwerk-universitaetsmedizin.de/fhir/StructureDefinition/cardiovascular-diseases"
                    ]
                },
                "category": [
                    {
                        "coding": [
                            {
                                "code": "722414000",
                                "system": "http://snomed.info/sct",
                                "display": "Vascular medicine"
                            }
                        ]
                    }
                ],
                "verificationStatus": {
                    "coding": [
                        {
                            "system": "http://terminology.hl7.org/CodeSystem/condition-ver-status",
                            "code": "confirmed",
                            "display": "Confirmed"
                        },
                        {
                            "system": "http://snomed.info/sct",
                            "code": "410605003",
                            "display": "Confirmed present (qualifier value)"
                        }
                    ]
                },
                "clinicalStatus": {
                    "coding": [
                        {
                            "code": "active",
                            "system": "http://terminology.hl7.org/CodeSystem/condition-clinical",
                            "display": "Active"
                        }
                    ]
                },
                "code": {
                    "coding": [
                        {
                            "code": "84114007",
                            "system": "http://snomed.info/sct",
                            "display": "Heart failure"
                        }
                    ]
                },
                "subject": {
                    "reference": "Patient/4ad4f71f-c9fd-403a-b2cd-73573021c385"
                },
                "recordedDate": "2020-10-06"
            },
            "request": {
                "method": "POST",
                "url": "Condition"
            }
        },
        {
            "resource": {
                "resourceType": "Observation",
                "id": "smoking-status-former-smoker",
                "meta": {
                    "profile": [
                        "https://www.netzwerk-universitaetsmedizin.de/fhir/StructureDefinition/smoking-status"
                    ]
                },
                "code": {
                    "coding": [
                        {
                            "code": "72166-2",
                            "system": "http://loinc.org",
                            "display": "Tobacco smoking status"
                        }
                    ]
                },
                "status": "final",
                "category": [
                    {
                        "coding": [
                            {
                                "code": "social-history",
                                "system": "http://terminology.hl7.org/CodeSystem/observation-category",
                                "display": "Social History"
                            }
                        ]
                    }
                ],
                "subject": {
                    "reference": "Patient/4ad4f71f-c9fd-403a-b2cd-73573021c385"
                },
                "effectiveDateTime": "2020-10-06",
                "valueCodeableConcept": {
                    "coding": [
                        {
                            "code": "LA15920-4",
                            "system": "http://loinc.org",
                            "display": "Former smoker"
                        }
                    ],
                    "text": "Patient is former smoker"
                }
            },
            "request": {
                "method": "POST",
                "url": "Observation"
            }
        },
        {
            "resource": {
                "resourceType": "Condition",
                "id": "symptoms-covid-19-cough-present",
                "meta": {
                    "profile": [
                        "https://www.netzwerk-universitaetsmedizin.de/fhir/StructureDefinition/symptoms-covid-19"
                    ]
                },
                "category": [
                    {
                        "coding": [
                            {
                                "code": "75325-1",
                                "system": "http://loinc.org",
                                "display": "Symptom"
                            }
                        ]
                    }
                ],
                "code": {
                    "coding": [
                        {
                            "system": "http://snomed.info/sct",
                            "code": "49727002",
                            "display": "Cough"
                        }
                    ]
                },
                "verificationStatus": {
                    "coding": [
                        {
                            "system": "http://terminology.hl7.org/CodeSystem/condition-ver-status",
                            "code": "confirmed",
                            "display": "Confirmed"
                        },
                        {
                            "system": "http://snomed.info/sct",
                            "code": "410605003",
                            "display": "Confirmed present (qualifier value)"
                        }
                    ]
                },
                "clinicalStatus": {
                    "coding": [
                        {
                            "code": "active",
                            "system": "http://terminology.hl7.org/CodeSystem/condition-clinical",
                            "display": "Active"
                        }
                    ]
                },
                "severity": {
                    "coding": [
                        {
                            "code": "24484000",
                            "system": "http://snomed.info/sct",
                            "display": "Severe"
                        }
                    ]
                },
                "subject": {
                    "reference": "Patient/4ad4f71f-c9fd-403a-b2cd-73573021c385"
                },
                "recordedDate": "2020-10-05"
            },
            "request": {
                "method": "POST",
                "url": "Condition"
            }
        },
        {
            "resource": {
                "resourceType": "Condition",
                "id": "dependence-on-ventilator-present",
                "meta": {
                    "profile": [
                        "https://www.netzwerk-universitaetsmedizin.de/fhir/StructureDefinition/dependence-on-ventilator"
                    ]
                },
                "category": [
                    {
                        "coding": [
                            {
                                "code": "404989005",
                                "system": "http://snomed.info/sct",
                                "display": "Ventilation status (observable entity)"
                            }
                        ]
                    }
                ],
                "code": {
                    "coding": [
                        {
                            "code": "444932008",
                            "system": "http://snomed.info/sct",
                            "display": "Dependence on ventilator (finding)"
                        }
                    ]
                },
                "verificationStatus": {
                    "coding": [
                        {
                            "system": "http://terminology.hl7.org/CodeSystem/condition-ver-status",
                            "code": "confirmed",
                            "display": "Confirmed"
                        },
                        {
                            "system": "http://snomed.info/sct",
                            "code": "410605003",
                            "display": "Confirmed present (qualifier value)"
                        }
                    ]
                },
                "clinicalStatus": {
                    "coding": [
                        {
                            "code": "active",
                            "system": "http://terminology.hl7.org/CodeSystem/condition-clinical",
                            "display": "Active"
                        }
                    ]
                },
                "subject": {
                    "reference": "Patient/4ad4f71f-c9fd-403a-b2cd-73573021c385"
                },
                "recordedDate": "2020-10-16T08:49:21+02:00"
            },
            "request": {
                "method": "POST",
                "url": "Condition"
            }
        },
        {
            "resource": {
                "resourceType": "Observation",
                "id": "sars-cov-2-igm-ser-pl-ql-ia",
                "meta": {
                    "profile": [
                        "https://www.netzwerk-universitaetsmedizin.de/fhir/StructureDefinition/sars-cov-2-igm-ser-pl-ql-ia"
                    ]
                },
                "identifier": [
                    {
                        "type": {
                            "coding": [
                                {
                                    "system": "http://terminology.hl7.org/CodeSystem/v2-0203",
                                    "code": "OBI"
                                }
                            ]
                        },
                        "system": "https://www.charite.de/fhir/CodeSystem/lab-identifiers",
                        "value": "94564-2_SARS-CoV-2-IgM-Ql",
                        "assigner": {
                            "reference": "Organization/Charit\u00e9"
                        }
                    }
                ],
                "category": [
                    {
                        "coding": [
                            {
                                "system": "http://loinc.org",
                                "code": "26436-6"
                            },
                            {
                                "system": "http://terminology.hl7.org/CodeSystem/observation-category",
                                "code": "laboratory"
                            }
                        ]
                    }
                ],
                "code": {
                    "coding": [
                        {
                            "code": "94564-2",
                            "system": "http://loinc.org",
                            "display": "SARS-CoV-2 (COVID-19) IgM Ab [Presence] in Serum or Plasma by Immunoassay"
                        }
                    ],
                    "text": "SARS-CoV-2 IgM antibodies qualitative"
                },
                "status": "final",
                "subject": {
                    "reference": "Patient/4ad4f71f-c9fd-403a-b2cd-73573021c385"
                },
                "effectiveDateTime": "2020-10-19T08:43:33+02:00",
                "valueCodeableConcept": {
                    "coding": [
                        {
                            "code": "260373001",
                            "system": "http://snomed.info/sct",
                            "display": "Detected (qualifier value)"
                        }
                    ]
                }
            },
            "request": {
                "method": "POST",
                "url": "Observation"
            }
        },
        {
            "resource": {
                "resourceType": "Observation",
                "id": "body-height",
                "meta": {
                    "profile": [
                        "https://www.netzwerk-universitaetsmedizin.de/fhir/StructureDefinition/body-height"
                    ]
                },
                "category": [
                    {
                        "coding": [
                            {
                                "code": "vital-signs",
                                "system": "http://terminology.hl7.org/CodeSystem/observation-category"
                            }
                        ]
                    }
                ],
                "code": {
                    "coding": [
                        {
                            "code": "8302-2",
                            "system": "http://loinc.org",
                            "display": "Body height"
                        },
                        {
                            "code": "1153637007",
                            "system": "http://snomed.info/sct",
                            "display": "Body height (observable entity)"
                        }
                    ],
                    "text": "Body height"
                },
                "valueQuantity": {
                    "system": "http://unitsofmeasure.org",
                    "value": 167,
                    "code": "cm",
                    "unit": "centimeter"
                },
                "identifier": [
                    {
                        "type": {
                            "coding": [
                                {
                                    "code": "OBI",
                                    "system": "http://terminology.hl7.org/CodeSystem/v2-0203"
                                }
                            ]
                        },
                        "system": "https://www.charite.de/fhir/CodeSystem/observation-identifiers",
                        "value": "8302-2_BodyHeight",
                        "assigner": {
                            "reference": "Organization/Charit\u00e9"
                        }
                    }
                ],
                "status": "final",
                "subject": {
                    "reference": "Patient/4ad4f71f-c9fd-403a-b2cd-73573021c385"
                },
                "effectiveDateTime": "2020-10-02"
            },
            "request": {
                "method": "POST",
                "url": "Observation"
            }
        },
        {
            "resource": {
                "resourceType": "Observation",
                "id": "heart-rate-normal",
                "meta": {
                    "profile": [
                        "https://www.netzwerk-universitaetsmedizin.de/fhir/StructureDefinition/heart-rate"
                    ]
                },
                "category": [
                    {
                        "coding": [
                            {
                                "code": "vital-signs",
                                "system": "http://terminology.hl7.org/CodeSystem/observation-category"
                            }
                        ]
                    }
                ],
                "code": {
                    "coding": [
                        {
                            "code": "8867-4",
                            "system": "http://loinc.org",
                            "display": "Heart rate"
                        },
                        {
                            "code": "364075005",
                            "system": "http://snomed.info/sct",
                            "display": "Heart rate (observable entity)"
                        }
                    ],
                    "text": "Heart rate"
                },
                "valueQuantity": {
                    "system": "http://unitsofmeasure.org",
                    "code": "/min",
                    "value": 81,
                    "unit": "per minute"
                },
                "identifier": [
                    {
                        "type": {
                            "coding": [
                                {
                                    "code": "OBI",
                                    "system": "http://terminology.hl7.org/CodeSystem/v2-0203"
                                }
                            ]
                        },
                        "system": "https://www.charite.de/fhir/CodeSystem/observation-identifiers",
                        "value": "8867-4_HeartRate",
                        "assigner": {
                            "reference": "Organization/Charit\u00e9"
                        }
                    }
                ],
                "status": "final",
                "subject": {
                    "reference": "Patient/4ad4f71f-c9fd-403a-b2cd-73573021c385"
                },
                "effectiveDateTime": "2020-09-25"
            },
            "request": {
                "method": "POST",
                "url": "Observation"
            }
        },
        {
            "resource": {
                "resourceType": "Condition",
                "id": "malignant-neoplastic-disease-unknown",
                "meta": {
                    "profile": [
                        "https://www.netzwerk-universitaetsmedizin.de/fhir/StructureDefinition/malignant-neoplastic-disease"
                    ]
                },
                "category": [
                    {
                        "coding": [
                            {
                                "code": "394593009",
                                "system": "http://snomed.info/sct",
                                "display": "Medical oncology (qualifier value)"
                            }
                        ]
                    }
                ],
                "modifierExtension": [
                    {
                        "url": "https://www.netzwerk-universitaetsmedizin.de/fhir/StructureDefinition/uncertainty-of-presence",
                        "valueCodeableConcept": {
                            "coding": [
                                {
                                    "system": "http://snomed.info/sct",
                                    "code": "261665006",
                                    "display": "Unknown (qualifier value)"
                                }
                            ],
                            "text": "Presence of condition is unknown."
                        }
                    }
                ],
                "code": {
                    "coding": [
                        {
                            "code": "363346000",
                            "system": "http://snomed.info/sct",
                            "display": "Malignant neoplastic disease"
                        }
                    ]
                },
                "subject": {
                    "reference": "Patient/4ad4f71f-c9fd-403a-b2cd-73573021c385"
                },
                "recordedDate": "2020-10-06"
            },
            "request": {
                "method": "POST",
                "url": "Condition"
            }
        },
        {
            "resource": {
                "resourceType": "Observation",
                "id": "sars-cov-2-igg-ser-pl-ql-ia",
                "meta": {
                    "profile": [
                        "https://www.netzwerk-universitaetsmedizin.de/fhir/StructureDefinition/sars-cov-2-igg-ser-pl-ql-ia"
                    ]
                },
                "identifier": [
                    {
                        "type": {
                            "coding": [
                                {
                                    "system": "http://terminology.hl7.org/CodeSystem/v2-0203",
                                    "code": "OBI"
                                }
                            ]
                        },
                        "system": "https://www.charite.de/fhir/CodeSystem/lab-identifiers",
                        "value": "94563-4_SARS-CoV-2-IgG-Ql",
                        "assigner": {
                            "reference": "Organization/Charit\u00e9"
                        }
                    }
                ],
                "category": [
                    {
                        "coding": [
                            {
                                "system": "http://loinc.org",
                                "code": "26436-6"
                            },
                            {
                                "system": "http://terminology.hl7.org/CodeSystem/observation-category",
                                "code": "laboratory"
                            }
                        ]
                    }
                ],
                "code": {
                    "coding": [
                        {
                            "code": "94563-4",
                            "system": "http://loinc.org",
                            "display": "SARS-CoV-2 (COVID-19) IgG Ab [Presence] in Serum or Plasma by Immunoassay"
                        }
                    ],
                    "text": "SARS-CoV-2 IgG antibodies qualitative"
                },
                "status": "final",
                "subject": {
                    "reference": "Patient/4ad4f71f-c9fd-403a-b2cd-73573021c385"
                },
                "effectiveDateTime": "2020-10-19T08:43:33+02:00",
                "valueCodeableConcept": {
                    "coding": [
                        {
                            "code": "260373001",
                            "system": "http://snomed.info/sct",
                            "display": "Detected (qualifier value)"
                        }
                    ]
                }
            },
            "request": {
                "method": "POST",
                "url": "Observation"
            }
        },
        {
            "resource": {
                "resourceType": "Condition",
                "id": "chronic-liver-disease-unknown",
                "meta": {
                    "profile": [
                        "https://www.netzwerk-universitaetsmedizin.de/fhir/StructureDefinition/chronic-liver-diseases"
                    ]
                },
                "category": [
                    {
                        "coding": [
                            {
                                "code": "408472002",
                                "system": "http://snomed.info/sct",
                                "display": "Hepatology"
                            }
                        ]
                    }
                ],
                "modifierExtension": [
                    {
                        "url": "https://www.netzwerk-universitaetsmedizin.de/fhir/StructureDefinition/uncertainty-of-presence",
                        "valueCodeableConcept": {
                            "coding": [
                                {
                                    "system": "http://snomed.info/sct",
                                    "code": "261665006",
                                    "display": "Unknown (qualifier value)"
                                }
                            ],
                            "text": "Presence of condition is unknown."
                        }
                    }
                ],
                "code": {
                    "coding": [
                        {
                            "code": "19943007",
                            "system": "http://snomed.info/sct",
                            "display": "Cirrhosis of liver"
                        }
                    ]
                },
                "subject": {
                    "reference": "Patient/4ad4f71f-c9fd-403a-b2cd-73573021c385"
                },
                "recordedDate": "2020-10-06"
            },
            "request": {
                "method": "POST",
                "url": "Condition"
            }
        },
        {
            "resource": {
                "resourceType": "Observation",
                "id": "blood-pressure-invasive",
                "meta": {
                    "profile": [
                        "https://www.netzwerk-universitaetsmedizin.de/fhir/StructureDefinition/blood-pressure"
                    ]
                },
                "category": [
                    {
                        "coding": [
                            {
                                "code": "vital-signs",
                                "system": "http://terminology.hl7.org/CodeSystem/observation-category"
                            }
                        ]
                    }
                ],
                "code": {
                    "coding": [
                        {
                            "code": "85354-9",
                            "system": "http://loinc.org",
                            "display": "Blood pressure panel with all children optional"
                        },
                        {
                            "code": "75367002",
                            "system": "http://snomed.info/sct",
                            "display": "Blood pressure (observable entity)"
                        }
                    ],
                    "text": "Blood pressure invasive"
                },
                "component": [
                    {
                        "code": {
                            "coding": [
                                {
                                    "code": "8480-6",
                                    "system": "http://loinc.org",
                                    "display": "Systolic blood pressure"
                                },
                                {
                                    "code": "76215-3",
                                    "system": "http://loinc.org",
                                    "display": "Invasive Systolic blood pressure"
                                },
                                {
                                    "code": "271649006",
                                    "system": "http://snomed.info/sct",
                                    "display": "Systolic blood pressure"
                                },
                                {
                                    "code": "251071003",
                                    "system": "http://snomed.info/sct",
                                    "display": "Invasive systolic arterial pressure (observable entity)"
                                }
                            ],
                            "text": "Invasive systolic blood pressure"
                        },
                        "valueQuantity": {
                            "system": "http://unitsofmeasure.org",
                            "code": "mm[Hg]",
                            "value": 136,
                            "unit": "mmHg"
                        }
                    },
                    {
                        "code": {
                            "coding": [
                                {
                                    "code": "8462-4",
                                    "system": "http://loinc.org",
                                    "display": "Diastolic blood pressure"
                                },
                                {
                                    "code": "76213-8",
                                    "system": "http://loinc.org",
                                    "display": "Invasive Diastolic blood pressure"
                                },
                                {
                                    "code": "271650006",
                                    "system": "http://snomed.info/sct",
                                    "display": "Diastolic blood pressure (observable entity)"
                                },
                                {
                                    "code": "251073000",
                                    "system": "http://snomed.info/sct",
                                    "display": "Invasive diastolic arterial pressure (observable entity)"
                                }
                            ],
                            "text": "Invasive diastolic blood pressure"
                        },
                        "valueQuantity": {
                            "system": "http://unitsofmeasure.org",
                            "code": "mm[Hg]",
                            "value": 87,
                            "unit": "mmHg"
                        }
                    }
                ],
                "identifier": [
                    {
                        "type": {
                            "coding": [
                                {
                                    "code": "OBI",
                                    "system": "http://terminology.hl7.org/CodeSystem/v2-0203"
                                }
                            ]
                        },
                        "system": "https://www.charite.de/fhir/CodeSystem/observation-identifiers",
                        "value": "85354-9_BloodPressure",
                        "assigner": {
                            "reference": "Organization/Charit\u00e9"
                        }
                    }
                ],
                "status": "final",
                "subject": {
                    "reference": "Patient/4ad4f71f-c9fd-403a-b2cd-73573021c385"
                },
                "effectiveDateTime": "2021-04-14",
                "method": {
                    "coding": [
                        {
                            "code": "10179008",
                            "system": "http://snomed.info/sct",
                            "display": "Invasive (qualifier value)"
                        }
                    ]
                }
            },
            "request": {
                "method": "POST",
                "url": "Observation"
            }
        },
        {
            "resource": {
                "resourceType": "Condition",
                "id": "chronic-lung-disease-sleep-apnea-unknown",
                "meta": {
                    "profile": [
                        "https://www.netzwerk-universitaetsmedizin.de/fhir/StructureDefinition/chronic-lung-diseases"
                    ]
                },
                "category": [
                    {
                        "coding": [
                            {
                                "code": "418112009",
                                "system": "http://snomed.info/sct",
                                "display": "Pulmonary medicine"
                            }
                        ]
                    }
                ],
                "modifierExtension": [
                    {
                        "url": "https://www.netzwerk-universitaetsmedizin.de/fhir/StructureDefinition/uncertainty-of-presence",
                        "valueCodeableConcept": {
                            "coding": [
                                {
                                    "system": "http://snomed.info/sct",
                                    "code": "261665006",
                                    "display": "Unknown (qualifier value)"
                                }
                            ],
                            "text": "Presence of condition is unknown."
                        }
                    }
                ],
                "code": {
                    "coding": [
                        {
                            "code": "78275009",
                            "system": "http://snomed.info/sct",
                            "display": "Obstructive sleep apnea syndrome"
                        }
                    ]
                },
                "subject": {
                    "reference": "Patient/4ad4f71f-c9fd-403a-b2cd-73573021c385"
                },
                "recordedDate": "2020-10-06"
            },
            "request": {
                "method": "POST",
                "url": "Condition"
            }
        },
        {
            "resource": {
                "resourceType": "Observation",
                "id": "sars-cov-2-iga-ser-pl-ia-acnc",
                "meta": {
                    "profile": [
                        "https://www.netzwerk-universitaetsmedizin.de/fhir/StructureDefinition/sars-cov-2-iga-ser-pl-ia-acnc"
                    ]
                },
                "identifier": [
                    {
                        "type": {
                            "coding": [
                                {
                                    "system": "http://terminology.hl7.org/CodeSystem/v2-0203",
                                    "code": "OBI"
                                }
                            ]
                        },
                        "system": "https://www.charite.de/fhir/CodeSystem/lab-identifiers",
                        "value": "94720-0_SARS-CoV-2-IgA-Qn",
                        "assigner": {
                            "reference": "Organization/Charit\u00e9"
                        }
                    }
                ],
                "category": [
                    {
                        "coding": [
                            {
                                "system": "http://loinc.org",
                                "code": "26436-6"
                            },
                            {
                                "system": "http://terminology.hl7.org/CodeSystem/observation-category",
                                "code": "laboratory"
                            }
                        ]
                    }
                ],
                "code": {
                    "coding": [
                        {
                            "code": "94720-0",
                            "system": "http://loinc.org",
                            "display": "SARS-CoV-2 (COVID-19) IgA Ab [Units/volume] in Serum or Plasma by Immunoassay"
                        }
                    ],
                    "text": "SARS-CoV-2 IgA antibodies quantitative"
                },
                "valueQuantity": {
                    "system": "http://unitsofmeasure.org",
                    "code": "[IU]/mL",
                    "value": 0.5,
                    "unit": "[IU]/mL"
                },
                "status": "final",
                "subject": {
                    "reference": "Patient/4ad4f71f-c9fd-403a-b2cd-73573021c385"
                },
                "effectiveDateTime": "2020-10-19T08:43:33+02:00"
            },
            "request": {
                "method": "POST",
                "url": "Observation"
            }
        },
        {
            "resource": {
                "resourceType": "Condition",
                "id": "complication-myocardial-infarction-unknown",
                "meta": {
                    "profile": [
                        "https://www.netzwerk-universitaetsmedizin.de/fhir/StructureDefinition/complications-covid-19"
                    ]
                },
                "category": [
                    {
                        "coding": [
                            {
                                "code": "116223007",
                                "system": "http://snomed.info/sct",
                                "display": "Complication (disorder)"
                            }
                        ]
                    }
                ],
                "code": {
                    "coding": [
                        {
                            "system": "http://snomed.info/sct",
                            "code": "22298006",
                            "display": "Myocardial infarction (disorder)"
                        }
                    ]
                },
                "modifierExtension": [
                    {
                        "url": "https://www.netzwerk-universitaetsmedizin.de/fhir/StructureDefinition/uncertainty-of-presence",
                        "valueCodeableConcept": {
                            "coding": [
                                {
                                    "code": "261665006",
                                    "system": "http://snomed.info/sct",
                                    "display": "Unknown (qualifier value)"
                                }
                            ],
                            "text": "Presence of condition is unknown."
                        }
                    }
                ],
                "subject": {
                    "reference": "Patient/4ad4f71f-c9fd-403a-b2cd-73573021c385"
                },
                "recordedDate": "2020-10-15T16:07:48+02:00"
            },
            "request": {
                "method": "POST",
                "url": "Condition"
            }
        },
        {
            "resource": {
                "resourceType": "Observation",
                "id": "sofa-score-1",
                "meta": {
                    "profile": [
                        "https://www.netzwerk-universitaetsmedizin.de/fhir/StructureDefinition/sofa-score"
                    ]
                },
                "category": [
                    {
                        "coding": [
                            {
                                "code": "survey",
                                "system": "http://terminology.hl7.org/CodeSystem/observation-category"
                            }
                        ]
                    }
                ],
                "code": {
                    "coding": [
                        {
                            "code": "06",
                            "system": "https://www.netzwerk-universitaetsmedizin.de/fhir/CodeSystem/ecrf-parameter-codes",
                            "display": "SOFA-Score"
                        }
                    ],
                    "text": "Sepsis-related organ failure assessment score"
                },
                "identifier": [
                    {
                        "type": {
                            "coding": [
                                {
                                    "code": "OBI",
                                    "system": "http://terminology.hl7.org/CodeSystem/v2-0203"
                                }
                            ]
                        },
                        "system": "https://www.charite.de/fhir/CodeSystem/observation-identifiers",
                        "value": "06_SOFA-Score",
                        "assigner": {
                            "reference": "Organization/Charit\u00e9"
                        }
                    }
                ],
                "status": "final",
                "subject": {
                    "reference": "Patient/4ad4f71f-c9fd-403a-b2cd-73573021c385"
                },
                "effectiveDateTime": "2020-11-30T11:04:49+01:00",
                "valueInteger": 15
            },
            "request": {
                "method": "POST",
                "url": "Observation"
            }
        },
        {
            "resource": {
                "resourceType": "Observation",
                "id": "study-inclusion-covid-19-yes",
                "meta": {
                    "profile": [
                        "https://www.netzwerk-universitaetsmedizin.de/fhir/StructureDefinition/study-inclusion-covid-19"
                    ]
                },
                "category": [
                    {
                        "coding": [
                            {
                                "code": "survey",
                                "system": "http://terminology.hl7.org/CodeSystem/observation-category"
                            }
                        ]
                    }
                ],
                "code": {
                    "coding": [
                        {
                            "code": "02",
                            "system": "https://www.netzwerk-universitaetsmedizin.de/fhir/CodeSystem/ecrf-parameter-codes",
                            "display": "Study inclusion due to Covid-19"
                        }
                    ],
                    "text": "Confirmed Covid-19 diagnosis as main reason for enrolment in the study"
                },
                "valueCodeableConcept": {
                    "coding": [
                        {
                            "system": "http://snomed.info/sct",
                            "code": "373066001",
                            "display": "Yes (qualifier value)"
                        }
                    ],
                    "text": "Covid-19 as primary reason for study inclusion"
                },
                "identifier": [
                    {
                        "type": {
                            "coding": [
                                {
                                    "code": "OBI",
                                    "system": "http://terminology.hl7.org/CodeSystem/v2-0203"
                                }
                            ]
                        },
                        "system": "https://www.charite.de/fhir/CodeSystem/observation-identifiers",
                        "value": "ecrf_02_StudyInclusionCovid19",
                        "assigner": {
                            "reference": "Organization/Charit\u00e9"
                        }
                    }
                ],
                "status": "final",
                "subject": {
                    "reference": "Patient/4ad4f71f-c9fd-403a-b2cd-73573021c385"
                },
                "effectiveDateTime": "2020-10-16T08:49:21+02:00"
            },
            "request": {
                "method": "POST",
                "url": "Observation"
            }
        },
        {
            "resource": {
                "resourceType": "Observation",
                "id": "sars-cov-2-igm-ser-pl-ia-acnc",
                "meta": {
                    "profile": [
                        "https://www.netzwerk-universitaetsmedizin.de/fhir/StructureDefinition/sars-cov-2-igm-ser-pl-ia-acnc"
                    ]
                },
                "identifier": [
                    {
                        "type": {
                            "coding": [
                                {
                                    "system": "http://terminology.hl7.org/CodeSystem/v2-0203",
                                    "code": "OBI"
                                }
                            ]
                        },
                        "system": "https://www.charite.de/fhir/CodeSystem/lab-identifiers",
                        "value": "94505-5_SARS-CoV-2-IgM-Qn",
                        "assigner": {
                            "reference": "Organization/Charit\u00e9"
                        }
                    }
                ],
                "category": [
                    {
                        "coding": [
                            {
                                "system": "http://loinc.org",
                                "code": "26436-6"
                            },
                            {
                                "system": "http://terminology.hl7.org/CodeSystem/observation-category",
                                "code": "laboratory"
                            }
                        ]
                    }
                ],
                "code": {
                    "coding": [
                        {
                            "code": "94506-3",
                            "system": "http://loinc.org",
                            "display": "SARS-CoV-2 (COVID-19) IgM Ab [Units/volume] in Serum or Plasma by Immunoassay"
                        }
                    ],
                    "text": "SARS-CoV-2 IgM antibodies quantitative"
                },
                "valueQuantity": {
                    "system": "http://unitsofmeasure.org",
                    "code": "[arb'U]/mL",
                    "value": 219.5,
                    "unit": "[arb'U]/mL"
                },
                "status": "final",
                "subject": {
                    "reference": "Patient/4ad4f71f-c9fd-403a-b2cd-73573021c385"
                },
                "effectiveDateTime": "2020-10-19T08:43:33+02:00"
            },
            "request": {
                "method": "POST",
                "url": "Observation"
            }
        },
        {
            "resource": {
                "resourceType": "Observation",
                "id": "discharge-disposition-palliative-care",
                "meta": {
                    "profile": [
                        "https://www.netzwerk-universitaetsmedizin.de/fhir/StructureDefinition/discharge-disposition"
                    ]
                },
                "category": [
                    {
                        "coding": [
                            {
                                "code": "social-history",
                                "system": "http://terminology.hl7.org/CodeSystem/observation-category"
                            }
                        ]
                    }
                ],
                "code": {
                    "coding": [
                        {
                            "code": "55128-3",
                            "system": "http://loinc.org",
                            "display": "Discharge disposition"
                        }
                    ],
                    "text": "Type of discharge"
                },
                "valueCodeableConcept": {
                    "coding": [
                        {
                            "system": "http://snomed.info/sct",
                            "code": "306237005",
                            "display": "Referral to palliative care service (procedure)"
                        }
                    ]
                },
                "effectiveDateTime": "2020-10-16T08:49:21+02:00",
                "identifier": [
                    {
                        "assigner": {
                            "reference": "Organization/Charit\u00e9"
                        },
                        "system": "https://www.charite.de/fhir/CodeSystem/observation-identifiers",
                        "type": {
                            "coding": [
                                {
                                    "code": "OBI",
                                    "system": "http://terminology.hl7.org/CodeSystem/v2-0203"
                                }
                            ]
                        },
                        "value": "55128-3_DischargeDisposition"
                    }
                ],
                "status": "final",
                "subject": {
                    "reference": "Patient/4ad4f71f-c9fd-403a-b2cd-73573021c385"
                }
            },
            "request": {
                "method": "POST",
                "url": "Observation"
            }
        },
        {
            "resource": {
                "resourceType": "Condition",
                "id": "history-of-organ-recipient-present",
                "meta": {
                    "profile": [
                        "https://www.netzwerk-universitaetsmedizin.de/fhir/StructureDefinition/organ-recipient"
                    ]
                },
                "category": [
                    {
                        "coding": [
                            {
                                "code": "788415003",
                                "system": "http://snomed.info/sct",
                                "display": "Transplant medicine"
                            }
                        ]
                    }
                ],
                "verificationStatus": {
                    "coding": [
                        {
                            "system": "http://terminology.hl7.org/CodeSystem/condition-ver-status",
                            "code": "confirmed",
                            "display": "Confirmed"
                        },
                        {
                            "system": "http://snomed.info/sct",
                            "code": "410605003",
                            "display": "Confirmed present (qualifier value)"
                        }
                    ]
                },
                "bodySite": [
                    {
                        "coding": [
                            {
                                "system": "http://snomed.info/sct",
                                "code": "181268008",
                                "display": "Entire liver"
                            }
                        ]
                    }
                ],
                "clinicalStatus": {
                    "coding": [
                        {
                            "code": "active",
                            "system": "http://terminology.hl7.org/CodeSystem/condition-clinical",
                            "display": "Active"
                        }
                    ]
                },
                "code": {
                    "coding": [
                        {
                            "code": "161663000",
                            "system": "http://snomed.info/sct",
                            "display": "History of being a tissue or organ recipient"
                        }
                    ]
                },
                "subject": {
                    "reference": "Patient/4ad4f71f-c9fd-403a-b2cd-73573021c385"
                },
                "recordedDate": "2020-10-05"
            },
            "request": {
                "method": "POST",
                "url": "Condition"
            }
        },
        {
            "resource": {
                "resourceType": "DiagnosticReport",
                "id": "diagnostic-report-radiology-covid-19",
                "meta": {
                    "profile": [
                        "https://www.netzwerk-universitaetsmedizin.de/fhir/StructureDefinition/diagnostic-report-radiology"
                    ]
                },
                "category": [
                    {
                        "coding": [
                            {
                                "code": "18726-0",
                                "system": "http://loinc.org",
                                "display": "Radiology studies (set)"
                            },
                            {
                                "code": "RAD",
                                "system": "http://terminology.hl7.org/CodeSystem/v2-0074",
                                "display": "Radiology"
                            }
                        ]
                    }
                ],
                "code": {
                    "coding": [
                        {
                            "code": "18748-4",
                            "system": "http://loinc.org",
                            "display": "Diagnostic imaging study"
                        }
                    ]
                },
                "conclusionCode": [
                    {
                        "coding": [
                            {
                                "system": "http://snomed.info/sct",
                                "code": "118247008:{363713009=263654008,42752001=840539006}",
                                "display": "|Radiologic finding (finding)|:{|Has interpretation (attribute)|=|Abnormal (qualifier value)|,|Due to (attribute)|=|Disease caused by severe acute respiratory syndrome coronavirus 2 (disorder)|}"
                            }
                        ]
                    }
                ],
                "status": "final",
                "subject": {
                    "reference": "Patient/4ad4f71f-c9fd-403a-b2cd-73573021c385"
                },
                "effectiveDateTime": "2020-09-30",
                "conclusion": "COVID-19-typischer Befund"
            },
            "request": {
                "method": "POST",
                "url": "DiagnosticReport"
            }
        },
        {
            "resource": {
                "resourceType": "Observation",
                "id": "known-exposure-covid-19",
                "meta": {
                    "profile": [
                        "https://www.netzwerk-universitaetsmedizin.de/fhir/StructureDefinition/known-exposure"
                    ]
                },
                "category": [
                    {
                        "coding": [
                            {
                                "code": "social-history",
                                "system": "http://terminology.hl7.org/CodeSystem/observation-category"
                            }
                        ]
                    }
                ],
                "code": {
                    "coding": [
                        {
                            "code": "88636-6",
                            "system": "http://loinc.org",
                            "display": "Known exposure [Identifier]"
                        }
                    ],
                    "text": "Known exposure"
                },
                "valueCodeableConcept": {
                    "coding": [
                        {
                            "system": "http://snomed.info/sct",
                            "code": "840546002",
                            "display": "Exposure to severe acute respiratory syndrome coronavirus 2 (event)"
                        }
                    ]
                },
                "identifier": [
                    {
                        "type": {
                            "coding": [
                                {
                                    "code": "OBI",
                                    "system": "http://terminology.hl7.org/CodeSystem/v2-0203"
                                }
                            ]
                        },
                        "system": "https://www.charite.de/fhir/CodeSystem/observation-identifiers",
                        "value": "88636-6_KnownExposure",
                        "assigner": {
                            "reference": "Organization/Charit\u00e9"
                        }
                    }
                ],
                "status": "final",
                "subject": {
                    "reference": "Patient/4ad4f71f-c9fd-403a-b2cd-73573021c385"
                },
                "effectiveDateTime": "2020-10-04"
            },
            "request": {
                "method": "POST",
                "url": "Observation"
            }
        },
        {
            "resource": {
                "resourceType": "Observation",
                "id": "inhaled-oxygen-concentration",
                "meta": {
                    "profile": [
                        "https://www.netzwerk-universitaetsmedizin.de/fhir/StructureDefinition/inhaled-oxygen-concentration"
                    ]
                },
                "identifier": [
                    {
                        "type": {
                            "coding": [
                                {
                                    "system": "http://terminology.hl7.org/CodeSystem/v2-0203",
                                    "code": "OBI"
                                }
                            ]
                        },
                        "system": "https://www.charite.de/fhir/CodeSystem/lab-identifiers",
                        "value": "3150-0_FiO2",
                        "assigner": {
                            "reference": "Organization/Charit\u00e9"
                        }
                    }
                ],
                "category": [
                    {
                        "coding": [
                            {
                                "system": "http://loinc.org",
                                "code": "26436-6"
                            },
                            {
                                "system": "http://terminology.hl7.org/CodeSystem/observation-category",
                                "code": "laboratory"
                            },
                            {
                                "code": "18767-4",
                                "system": "http://loinc.org"
                            }
                        ]
                    }
                ],
                "code": {
                    "coding": [
                        {
                            "code": "3150-0",
                            "system": "http://loinc.org",
                            "display": "Inhaled oxygen concentration"
                        }
                    ],
                    "text": "Inhaled oxygen concentration"
                },
                "valueQuantity": {
                    "system": "http://unitsofmeasure.org",
                    "code": "%",
                    "value": 21,
                    "unit": "%"
                },
                "status": "final",
                "subject": {
                    "reference": "Patient/4ad4f71f-c9fd-403a-b2cd-73573021c385"
                },
                "effectiveDateTime": "2020-09-21"
            },
            "request": {
                "method": "POST",
                "url": "Observation"
            }
        },
        {
            "resource": {
                "resourceType": "Condition",
                "id": "human-immunodeficiency-virus-infection-absent",
                "meta": {
                    "profile": [
                        "https://www.netzwerk-universitaetsmedizin.de/fhir/StructureDefinition/human-immunodeficiency-virus-infection"
                    ]
                },
                "category": [
                    {
                        "coding": [
                            {
                                "code": "394807007",
                                "system": "http://snomed.info/sct",
                                "display": "Infectious diseases (specialty)"
                            }
                        ]
                    }
                ],
                "verificationStatus": {
                    "coding": [
                        {
                            "system": "http://terminology.hl7.org/CodeSystem/condition-ver-status",
                            "code": "refuted",
                            "display": "Refuted"
                        },
                        {
                            "system": "http://snomed.info/sct",
                            "code": "410594000",
                            "display": "Definitely NOT present (qualifier value)"
                        }
                    ]
                },
                "code": {
                    "coding": [
                        {
                            "code": "86406008",
                            "system": "http://snomed.info/sct",
                            "display": "Human immunodeficiency virus infection"
                        }
                    ]
                },
                "subject": {
                    "reference": "Patient/4ad4f71f-c9fd-403a-b2cd-73573021c385"
                },
                "recordedDate": "2020-10-06"
            },
            "request": {
                "method": "POST",
                "url": "Condition"
            }
        },
        {
            "resource": {
                "resourceType": "Observation",
                "id": "laboratory-creatinine",
                "meta": {
                    "profile": [
                        "https://www.medizininformatik-initiative.de/fhir/core/modul-labor/StructureDefinition/ObservationLab"
                    ]
                },
                "identifier": [
                    {
                        "type": {
                            "coding": [
                                {
                                    "system": "http://terminology.hl7.org/CodeSystem/v2-0203",
                                    "code": "OBI"
                                }
                            ]
                        },
                        "system": "https://www.charite.de/fhir/CodeSystem/lab-identifiers",
                        "value": "2160-0_creatinine-mass-per-volume-in-serum-or-plasma",
                        "assigner": {
                            "reference": "Organization/Charit\u00e9"
                        }
                    }
                ],
                "category": [
                    {
                        "coding": [
                            {
                                "system": "http://loinc.org",
                                "code": "26436-6"
                            },
                            {
                                "system": "http://terminology.hl7.org/CodeSystem/observation-category",
                                "code": "laboratory"
                            }
                        ]
                    }
                ],
                "valueQuantity": {
                    "system": "http://unitsofmeasure.org",
                    "value": 0.9,
                    "code": "mg/dL",
                    "unit": "mg/dL"
                },
                "status": "final",
                "code": {
                    "coding": [
                        {
                            "code": "2160-0",
                            "system": "http://loinc.org",
                            "display": "Creatinine [Mass/volume] in Serum or Plasma"
                        }
                    ],
                    "text": "Creatinine"
                },
                "subject": {
                    "reference": "Patient/4ad4f71f-c9fd-403a-b2cd-73573021c385"
                },
                "effectiveDateTime": "2020-10-16T08:49:21+02:00"
            },
            "request": {
                "method": "POST",
                "url": "Observation"
            }
        },
        {
            "resource": {
                "resourceType": "Observation",
                "id": "sars-cov-2-rt-pcr-inconclusive",
                "meta": {
                    "profile": [
                        "https://www.netzwerk-universitaetsmedizin.de/fhir/StructureDefinition/sars-cov-2-rt-pcr"
                    ]
                },
                "identifier": [
                    {
                        "type": {
                            "coding": [
                                {
                                    "system": "http://terminology.hl7.org/CodeSystem/v2-0203",
                                    "code": "OBI"
                                }
                            ]
                        },
                        "system": "https://www.charite.de/fhir/CodeSystem/lab-identifiers",
                        "value": "94500-6_SARS-CoV-2-RNA-Presence-in-Respiratory-specimen",
                        "assigner": {
                            "reference": "Organization/Charit\u00e9"
                        }
                    }
                ],
                "category": [
                    {
                        "coding": [
                            {
                                "system": "http://loinc.org",
                                "code": "26436-6"
                            },
                            {
                                "system": "http://terminology.hl7.org/CodeSystem/observation-category",
                                "code": "laboratory"
                            }
                        ]
                    }
                ],
                "code": {
                    "coding": [
                        {
                            "code": "94500-6",
                            "system": "http://loinc.org",
                            "display": "SARS-CoV-2 (COVID-19) RNA [Presence] in Respiratory specimen by NAA with probe detection"
                        }
                    ],
                    "text": "SARS-CoV-2-RNA (PCR)"
                },
                "status": "final",
                "subject": {
                    "reference": "Patient/4ad4f71f-c9fd-403a-b2cd-73573021c385"
                },
                "effectiveDateTime": "2020-10-16T08:49:21+02:00",
                "valueCodeableConcept": {
                    "coding": [
                        {
                            "code": "419984006",
                            "system": "http://snomed.info/sct",
                            "display": "Inconclusive (qualifier value)"
                        }
                    ],
                    "text": "SARS-CoV-2-RNA nicht eindeutig"
                }
            },
            "request": {
                "method": "POST",
                "url": "Observation"
            }
        },
        {
            "resource": {
                "resourceType": "DiagnosticReport",
                "id": "diagnostic-report-radiology-undetermined",
                "meta": {
                    "profile": [
                        "https://www.netzwerk-universitaetsmedizin.de/fhir/StructureDefinition/diagnostic-report-radiology"
                    ]
                },
                "category": [
                    {
                        "coding": [
                            {
                                "code": "18726-0",
                                "system": "http://loinc.org",
                                "display": "Radiology studies (set)"
                            },
                            {
                                "code": "RAD",
                                "system": "http://terminology.hl7.org/CodeSystem/v2-0074",
                                "display": "Radiology"
                            }
                        ]
                    }
                ],
                "code": {
                    "coding": [
                        {
                            "code": "18748-4",
                            "system": "http://loinc.org",
                            "display": "Diagnostic imaging study"
                        }
                    ]
                },
                "conclusionCode": [
                    {
                        "coding": [
                            {
                                "system": "http://snomed.info/sct",
                                "code": "118247008:{363713009=373068000}",
                                "display": "|Radiologic finding (finding)|:|Has interpretation (attribute)|=|Undetermined (qualifier value)|"
                            }
                        ]
                    }
                ],
                "status": "final",
                "subject": {
                    "reference": "Patient/4ad4f71f-c9fd-403a-b2cd-73573021c385"
                },
                "effectiveDateTime": "2020-09-30",
                "conclusion": "Unspezifischer Befund"
            },
            "request": {
                "method": "POST",
                "url": "DiagnosticReport"
            }
        },
        {
            "resource": {
                "resourceType": "Condition",
                "id": "gastrointestinal-ulcers-unknown",
                "meta": {
                    "profile": [
                        "https://www.netzwerk-universitaetsmedizin.de/fhir/StructureDefinition/gastrointestinal-ulcers"
                    ]
                },
                "category": [
                    {
                        "coding": [
                            {
                                "code": "394584008",
                                "system": "http://snomed.info/sct",
                                "display": "Gastroenterology"
                            }
                        ]
                    }
                ],
                "modifierExtension": [
                    {
                        "url": "https://www.netzwerk-universitaetsmedizin.de/fhir/StructureDefinition/uncertainty-of-presence",
                        "valueCodeableConcept": {
                            "coding": [
                                {
                                    "system": "http://snomed.info/sct",
                                    "code": "261665006",
                                    "display": "Unknown (qualifier value)"
                                }
                            ],
                            "text": "Presence of condition is unknown."
                        }
                    }
                ],
                "code": {
                    "coding": [
                        {
                            "code": "40845000",
                            "system": "http://snomed.info/sct",
                            "display": "Gastrointestinal ulcer"
                        }
                    ]
                },
                "subject": {
                    "reference": "Patient/4ad4f71f-c9fd-403a-b2cd-73573021c385"
                },
                "recordedDate": "2020-10-06"
            },
            "request": {
                "method": "POST",
                "url": "Condition"
            }
        },
        {
            "resource": {
                "resourceType": "Procedure",
                "id": "radiology-procedure-ct-completed",
                "meta": {
                    "profile": [
                        "https://www.netzwerk-universitaetsmedizin.de/fhir/StructureDefinition/radiology-procedures"
                    ]
                },
                "status": "completed",
                "category": {
                    "coding": [
                        {
                            "code": "103693007",
                            "system": "http://snomed.info/sct",
                            "display": "Diagnostic procedure (procedure)"
                        }
                    ]
                },
                "code": {
                    "coding": [
                        {
                            "code": "77477000",
                            "system": "http://snomed.info/sct",
                            "display": "Computerized axial tomography (procedure)"
                        },
                        {
                            "code": "CT",
                            "system": "http://dicom.nema.org/resources/ontology/DCM",
                            "display": "Computed Tomography"
                        }
                    ],
                    "text": "Computed Tomography"
                },
                "subject": {
                    "reference": "Patient/4ad4f71f-c9fd-403a-b2cd-73573021c385"
                },
                "performedDateTime": "2020-09-30",
                "bodySite": [
                    {
                        "coding": [
                            {
                                "code": "39607008",
                                "system": "http://snomed.info/sct",
                                "display": "Lung structure (body structure)"
                            }
                        ]
                    }
                ],
                "report": [
                    {
                        "reference": "DiagnosticReport/diagnostic-report-radiology-covid-19"
                    }
                ]
            },
            "request": {
                "method": "POST",
                "url": "Procedure"
            }
        },
        {
            "resource": {
                "resourceType": "Observation",
                "id": "sex-assigned-at-birth-male",
                "meta": {
                    "profile": [
                        "https://www.netzwerk-universitaetsmedizin.de/fhir/StructureDefinition/sex-assigned-at-birth"
                    ]
                },
                "category": [
                    {
                        "coding": [
                            {
                                "code": "social-history",
                                "system": "http://terminology.hl7.org/CodeSystem/observation-category",
                                "display": "Social History"
                            }
                        ]
                    }
                ],
                "code": {
                    "coding": [
                        {
                            "code": "76689-9",
                            "system": "http://loinc.org",
                            "display": "Sex assigned at birth"
                        }
                    ]
                },
                "status": "final",
                "subject": {
                    "reference": "Patient/4ad4f71f-c9fd-403a-b2cd-73573021c385"
                },
                "effectiveDateTime": "2020-10-26T10:51:48+01:00",
                "valueCodeableConcept": {
                    "coding": [
                        {
                            "code": "male",
                            "system": "http://hl7.org/fhir/administrative-gender",
                            "display": "Male"
                        }
                    ],
                    "text": "Male"
                }
            },
            "request": {
                "method": "POST",
                "url": "Observation"
            }
        },
        {
            "resource": {
                "resourceType": "Observation",
                "id": "e39a18a6-63d7-4117-a38e-1f29be15f6fa",
                "meta": {
                    "profile": [
                        "https://www.netzwerk-universitaetsmedizin.de/fhir/StructureDefinition/oxygen-partial-pressure"
                    ]
                },
                "identifier": [
                    {
                        "type": {
                            "coding": [
                                {
                                    "system": "http://terminology.hl7.org/CodeSystem/v2-0203",
                                    "code": "OBI"
                                }
                            ]
                        },
                        "system": "https://www.charite.de/fhir/CodeSystem/lab-identifiers",
                        "value": "2703-7_paO2",
                        "assigner": {
                            "reference": "Organization/Charit\u00e9"
                        }
                    }
                ],
                "status": "final",
                "category": [
                    {
                        "coding": [
                            {
                                "system": "http://loinc.org",
                                "code": "26436-6"
                            },
                            {
                                "system": "http://terminology.hl7.org/CodeSystem/observation-category",
                                "code": "laboratory"
                            },
                            {
                                "system": "http://loinc.org",
                                "code": "18767-4"
                            }
                        ]
                    }
                ],
                "code": {
                    "coding": [
                        {
                            "system": "http://loinc.org",
                            "code": "2703-7",
                            "display": "Oxygen [Partial pressure] in Arterial blood"
                        }
                    ],
                    "text": "Oxygen [Partial pressure] in Arterial blood"
                },
                "subject": {
                    "reference": "Patient/4ad4f71f-c9fd-403a-b2cd-73573021c385"
                },
                "effectiveDateTime": "2020-09-21",
                "valueQuantity": {
                    "value": 67,
                    "unit": "mmHg",
                    "system": "http://unitsofmeasure.org",
                    "code": "mm[Hg]"
                }
            },
            "request": {
                "method": "POST",
                "url": "Observation"
            }
        },
        {
            "resource": {
                "resourceType": "Observation",
                "id": "ac8b697d-7088-4fbe-9ece-51df2d3f1e04",
                "meta": {
                    "profile": [
                        "https://www.netzwerk-universitaetsmedizin.de/fhir/StructureDefinition/pH"
                    ]
                },
                "identifier": [
                    {
                        "type": {
                            "coding": [
                                {
                                    "system": "http://terminology.hl7.org/CodeSystem/v2-0203",
                                    "code": "OBI"
                                }
                            ]
                        },
                        "system": "https://www.charite.de/fhir/CodeSystem/lab-identifiers",
                        "value": "2744-1_pH",
                        "assigner": {
                            "reference": "Organization/Charit\u00e9"
                        }
                    }
                ],
                "status": "final",
                "category": [
                    {
                        "coding": [
                            {
                                "system": "http://loinc.org",
                                "code": "26436-6"
                            },
                            {
                                "system": "http://terminology.hl7.org/CodeSystem/observation-category",
                                "code": "laboratory"
                            },
                            {
                                "system": "http://loinc.org",
                                "code": "18767-4"
                            }
                        ]
                    }
                ],
                "code": {
                    "coding": [
                        {
                            "system": "http://loinc.org",
                            "code": "2744-1",
                            "display": "pH of Arterial blood"
                        }
                    ],
                    "text": "pH of Arterial blood"
                },
                "subject": {
                    "reference": "Patient/4ad4f71f-c9fd-403a-b2cd-73573021c385"
                },
                "effectiveDateTime": "2020-09-21",
                "valueQuantity": {
                    "value": 7.4,
                    "unit": "pH",
                    "system": "http://unitsofmeasure.org",
                    "code": "[pH]"
                }
            },
            "request": {
                "method": "POST",
                "url": "Observation"
            }
        },
        {
            "resource": {
                "resourceType": "Observation",
                "id": "oxygen-partial-pressure",
                "meta": {
                    "profile": [
                        "https://www.netzwerk-universitaetsmedizin.de/fhir/StructureDefinition/oxygen-partial-pressure"
                    ]
                },
                "identifier": [
                    {
                        "type": {
                            "coding": [
                                {
                                    "system": "http://terminology.hl7.org/CodeSystem/v2-0203",
                                    "code": "OBI"
                                }
                            ]
                        },
                        "system": "https://www.charite.de/fhir/CodeSystem/lab-identifiers",
                        "value": "2703-7_paO2",
                        "assigner": {
                            "reference": "Organization/Charit\u00e9"
                        }
                    }
                ],
                "category": [
                    {
                        "coding": [
                            {
                                "system": "http://loinc.org",
                                "code": "26436-6"
                            },
                            {
                                "system": "http://terminology.hl7.org/CodeSystem/observation-category",
                                "code": "laboratory"
                            },
                            {
                                "code": "18767-4",
                                "system": "http://loinc.org"
                            }
                        ]
                    }
                ],
                "valueQuantity": {
                    "system": "http://unitsofmeasure.org",
                    "code": "mm[Hg]",
                    "value": 67,
                    "unit": "mmHg"
                },
                "status": "final",
                "code": {
                    "coding": [
                        {
                            "code": "2703-7",
                            "system": "http://loinc.org",
                            "display": "Oxygen [Partial pressure] in Arterial blood"
                        }
                    ],
                    "text": "Oxygen [Partial pressure] in Arterial blood"
                },
                "subject": {
                    "reference": "Patient/4ad4f71f-c9fd-403a-b2cd-73573021c385"
                },
                "effectiveDateTime": "2020-09-21"
            },
            "request": {
                "method": "POST",
                "url": "Observation"
            }
        },
        {
            "resource": {
                "resourceType": "Condition",
                "id": "rheumatological-immunological-disease-congenital-absent",
                "meta": {
                    "profile": [
                        "https://www.netzwerk-universitaetsmedizin.de/fhir/StructureDefinition/rheumatological-immunological-diseases"
                    ]
                },
                "verificationStatus": {
                    "coding": [
                        {
                            "system": "http://terminology.hl7.org/CodeSystem/condition-ver-status",
                            "code": "refuted",
                            "display": "Refuted"
                        },
                        {
                            "system": "http://snomed.info/sct",
                            "code": "410594000",
                            "display": "Definitely NOT present (qualifier value)"
                        }
                    ]
                },
                "category": [
                    {
                        "coding": [
                            {
                                "code": "394810000",
                                "system": "http://snomed.info/sct",
                                "display": "Rheumatology"
                            },
                            {
                                "code": "408480009",
                                "system": "http://snomed.info/sct",
                                "display": "Clinical immunology"
                            }
                        ]
                    }
                ],
                "code": {
                    "coding": [
                        {
                            "code": "36138009",
                            "system": "http://snomed.info/sct",
                            "display": "Congenital immunodeficiency disease"
                        }
                    ]
                },
                "subject": {
                    "reference": "Patient/4ad4f71f-c9fd-403a-b2cd-73573021c385"
                },
                "recordedDate": "2020-10-06"
            },
            "request": {
                "method": "POST",
                "url": "Condition"
            }
        },
        {
            "resource": {
                "resourceType": "Observation",
                "id": "pregnancy-status-pregnant",
                "meta": {
                    "profile": [
                        "https://www.netzwerk-universitaetsmedizin.de/fhir/StructureDefinition/pregnancy-status"
                    ]
                },
                "code": {
                    "coding": [
                        {
                            "system": "http://loinc.org",
                            "code": "82810-3",
                            "display": "Pregnancy status"
                        }
                    ],
                    "text": "Pregnancy status"
                },
                "valueCodeableConcept": {
                    "coding": [
                        {
                            "system": "http://loinc.org",
                            "code": "LA15173-0",
                            "display": "Pregnant"
                        },
                        {
                            "code": "77386006",
                            "system": "http://snomed.info/sct",
                            "display": "Pregnant (finding)"
                        }
                    ]
                },
                "identifier": [
                    {
                        "type": {
                            "coding": [
                                {
                                    "code": "OBI",
                                    "system": "http://terminology.hl7.org/CodeSystem/v2-0203"
                                }
                            ]
                        },
                        "system": "https://www.charite.de/fhir/CodeSystem/observation-identifiers",
                        "value": "82810-3_PregnancyDtatus",
                        "assigner": {
                            "reference": "Organization/Charit\u00e9"
                        }
                    }
                ],
                "status": "final",
                "category": [
                    {
                        "coding": [
                            {
                                "code": "social-history",
                                "system": "http://terminology.hl7.org/CodeSystem/observation-category"
                            }
                        ]
                    }
                ],
                "subject": {
                    "reference": "Patient/4ad4f71f-c9fd-403a-b2cd-73573021c385"
                },
                "effectiveDateTime": "2020-10-02"
            },
            "request": {
                "method": "POST",
                "url": "Observation"
            }
        },
        {
            "resource": {
                "resourceType": "Condition",
                "id": "diagnosis-covid-19-present",
                "meta": {
                    "profile": [
                        "https://www.netzwerk-universitaetsmedizin.de/fhir/StructureDefinition/diagnosis-covid-19"
                    ]
                },
                "category": [
                    {
                        "coding": [
                            {
                                "code": "394807007",
                                "system": "http://snomed.info/sct",
                                "display": "Infectious diseases (specialty) (qualifier value)"
                            }
                        ]
                    }
                ],
                "code": {
                    "coding": [
                        {
                            "code": "840539006",
                            "system": "http://snomed.info/sct",
                            "display": "Disease caused by Severe acute respiratory syndrome coronavirus 2 (disorder)"
                        }
                    ]
                },
                "verificationStatus": {
                    "coding": [
                        {
                            "system": "http://terminology.hl7.org/CodeSystem/condition-ver-status",
                            "code": "confirmed",
                            "display": "Confirmed"
                        },
                        {
                            "system": "http://snomed.info/sct",
                            "code": "410605003",
                            "display": "Confirmed present (qualifier value)"
                        }
                    ]
                },
                "stage": [
                    {
                        "summary": {
                            "coding": [
                                {
                                    "system": "http://snomed.info/sct",
                                    "code": "24484000",
                                    "display": "Severe (severity modifier) (qualifier value)"
                                }
                            ],
                            "text": "Critical phase"
                        },
                        "type": {
                            "coding": [
                                {
                                    "system": "http://loinc.org",
                                    "code": "88859-4",
                                    "display": "Disease stage score for risk calculation"
                                }
                            ]
                        }
                    }
                ],
                "clinicalStatus": {
                    "coding": [
                        {
                            "code": "active",
                            "system": "http://terminology.hl7.org/CodeSystem/condition-clinical",
                            "display": "Active"
                        }
                    ]
                },
                "subject": {
                    "reference": "Patient/4ad4f71f-c9fd-403a-b2cd-73573021c385"
                },
                "recordedDate": "2020-10-23T12:48:23+02:00"
            },
            "request": {
                "method": "POST",
                "url": "Condition"
            }
        },
        {
            "resource": {
                "resourceType": "Immunization",
                "id": "immunization-pneumococcal-disease",
                "meta": {
                    "profile": [
                        "https://www.netzwerk-universitaetsmedizin.de/fhir/StructureDefinition/immunization"
                    ]
                },
                "status": "completed",
                "vaccineCode": {
                    "coding": [
                        {
                            "code": "836398006",
                            "system": "http://snomed.info/sct",
                            "display": "Vaccine product containing Streptococcus pneumoniae antigen (medicinal product)"
                        }
                    ]
                },
                "patient": {
                    "reference": "Patient/4ad4f71f-c9fd-403a-b2cd-73573021c385"
                },
                "occurrenceDateTime": "2020-10-06",
                "protocolApplied": [
                    {
                        "targetDisease": [
                            {
                                "coding": [
                                    {
                                        "code": "16814004",
                                        "system": "http://snomed.info/sct",
                                        "display": "Pneumococcal infectious disease (disorder)"
                                    }
                                ]
                            }
                        ],
                        "_doseNumberString": {
                            "extension": [
                                {
                                    "url": "http://hl7.org/fhir/StructureDefinition/data-absent-reason",
                                    "valueCode": "unknown"
                                }
                            ]
                        }
                    }
                ]
            },
            "request": {
                "method": "POST",
                "url": "Immunization"
            }
        },
        {
            "resource": {
                "resourceType": "Condition",
                "id": "chronic-kidney-disease-stage-5-present",
                "meta": {
                    "profile": [
                        "https://www.netzwerk-universitaetsmedizin.de/fhir/StructureDefinition/chronic-kidney-diseases"
                    ]
                },
                "category": [
                    {
                        "coding": [
                            {
                                "code": "394589003",
                                "system": "http://snomed.info/sct",
                                "display": "Nephrology (qualifier value)"
                            }
                        ]
                    }
                ],
                "verificationStatus": {
                    "coding": [
                        {
                            "system": "http://terminology.hl7.org/CodeSystem/condition-ver-status",
                            "code": "confirmed",
                            "display": "Confirmed"
                        },
                        {
                            "system": "http://snomed.info/sct",
                            "code": "410605003",
                            "display": "Confirmed present (qualifier value)"
                        }
                    ]
                },
                "clinicalStatus": {
                    "coding": [
                        {
                            "code": "active",
                            "system": "http://terminology.hl7.org/CodeSystem/condition-clinical",
                            "display": "Active"
                        }
                    ]
                },
                "code": {
                    "coding": [
                        {
                            "code": "714152005",
                            "system": "http://snomed.info/sct",
                            "display": "Chronic kidney disease stage 5 on dialysis (disorder)"
                        }
                    ]
                },
                "subject": {
                    "reference": "Patient/4ad4f71f-c9fd-403a-b2cd-73573021c385"
                },
                "recordedDate": "2020-10-28T17:01:09+01:00"
            },
            "request": {
                "method": "POST",
                "url": "Condition"
            }
        },
        {
            "resource": {
                "resourceType": "Observation",
                "id": "6a78560b-2f7c-4af5-a7bc-3c7d62ca8458",
                "meta": {
                    "profile": [
                        "https://www.netzwerk-universitaetsmedizin.de/fhir/StructureDefinition/carbon-dioxide-partial-pressure"
                    ]
                },
                "identifier": [
                    {
                        "type": {
                            "coding": [
                                {
                                    "system": "http://terminology.hl7.org/CodeSystem/v2-0203",
                                    "code": "OBI"
                                }
                            ]
                        },
                        "system": "https://www.charite.de/fhir/CodeSystem/lab-identifiers",
                        "value": "2019-8_paCO2",
                        "assigner": {
                            "reference": "Organization/Charit\u00e9"
                        }
                    }
                ],
                "status": "final",
                "category": [
                    {
                        "coding": [
                            {
                                "system": "http://loinc.org",
                                "code": "26436-6"
                            },
                            {
                                "system": "http://terminology.hl7.org/CodeSystem/observation-category",
                                "code": "laboratory"
                            },
                            {
                                "system": "http://loinc.org",
                                "code": "18767-4"
                            }
                        ]
                    }
                ],
                "code": {
                    "coding": [
                        {
                            "system": "http://loinc.org",
                            "code": "2019-8",
                            "display": "Carbon dioxide [Partial pressure] in Arterial blood"
                        }
                    ],
                    "text": "Carbon dioxide [Partial pressure] in Arterial blood"
                },
                "subject": {
                    "reference": "Patient/4ad4f71f-c9fd-403a-b2cd-73573021c385"
                },
                "effectiveDateTime": "2020-09-21",
                "valueQuantity": {
                    "value": 44,
                    "unit": "mmHg",
                    "system": "http://unitsofmeasure.org",
                    "code": "mm[Hg]"
                }
            },
            "request": {
                "method": "POST",
                "url": "Observation"
            }
        },
        {
            "resource": {
                "resourceType": "MedicationStatement",
                "id": "pharmacological-therapy-ace-inhibitors-not-taken",
                "meta": {
                    "profile": [
                        "https://www.netzwerk-universitaetsmedizin.de/fhir/StructureDefinition/pharmacological-therapy-ace-inhibitors"
                    ]
                },
                "medicationCodeableConcept": {
                    "coding": [
                        {
                            "code": "41549009",
                            "system": "http://snomed.info/sct",
                            "display": "Product containing angiotensin-converting enzyme inhibitor (product)"
                        },
                        {
                            "code": "C09A",
                            "system": "http://fhir.de/CodeSystem/bfarm/atc",
                            "display": "ACE-HEMMER, REIN"
                        }
                    ],
                    "text": "ACE inhibitors"
                },
                "status": "not-taken",
                "subject": {
                    "reference": "Patient/4ad4f71f-c9fd-403a-b2cd-73573021c385"
                },
                "effectiveDateTime": "2020-10-19T08:43:33+02:00"
            },
            "request": {
                "method": "POST",
                "url": "MedicationStatement"
            }
        },
        {
            "resource": {
                "resourceType": "Observation",
                "id": "BloodGasPanelArterial",
                "meta": {
                    "profile": [
                        "https://www.netzwerk-universitaetsmedizin.de/fhir/StructureDefinition/blood-gas-panel"
                    ]
                },
                "identifier": [
                    {
                        "type": {
                            "coding": [
                                {
                                    "system": "http://terminology.hl7.org/CodeSystem/v2-0203",
                                    "code": "OBI"
                                }
                            ]
                        },
                        "system": "https://www.charite.de/fhir/CodeSystem/lab-identifiers",
                        "value": "24336-0_gasPanelBldA",
                        "assigner": {
                            "reference": "Organization/Charit\u00e9"
                        }
                    }
                ],
                "category": [
                    {
                        "coding": [
                            {
                                "system": "http://loinc.org",
                                "code": "26436-6"
                            },
                            {
                                "system": "http://terminology.hl7.org/CodeSystem/observation-category",
                                "code": "laboratory"
                            },
                            {
                                "system": "http://loinc.org",
                                "code": "18767-4"
                            }
                        ]
                    }
                ],
                "status": "final",
                "code": {
                    "coding": [
                        {
                            "code": "24336-0",
                            "system": "http://loinc.org",
                            "display": "Gas panel - Arterial blood"
                        }
                    ],
                    "text": "Gas panel - Arterial blood"
                },
                "subject": {
                    "reference": "Patient/4ad4f71f-c9fd-403a-b2cd-73573021c385"
                },
                "effectiveDateTime": "2020-09-21",
                "hasMember": [
                    {
                        "reference": "Observation/ac8b697d-7088-4fbe-9ece-51df2d3f1e04"
                    },
                    {
                        "reference": "Observation/6a78560b-2f7c-4af5-a7bc-3c7d62ca8458"
                    },
                    {
                        "reference": "Observation/e39a18a6-63d7-4117-a38e-1f29be15f6fa"
                    },
                    {
                        "reference": "Observation/6fa9e2be-d15a-4e77-81fc-056dda521875"
                    },
                    {
                        "reference": "Observation/c9f96dd3-a77a-4aa9-9b12-43cd1972d9a4"
                    }
                ]
            },
            "request": {
                "method": "POST",
                "url": "Observation"
            }
        },
        {
            "resource": {
                "resourceType": "Observation",
                "id": "respiratory-rate",
                "meta": {
                    "profile": [
                        "https://www.netzwerk-universitaetsmedizin.de/fhir/StructureDefinition/respiratory-rate"
                    ]
                },
                "category": [
                    {
                        "coding": [
                            {
                                "code": "vital-signs",
                                "system": "http://terminology.hl7.org/CodeSystem/observation-category"
                            }
                        ]
                    }
                ],
                "code": {
                    "coding": [
                        {
                            "code": "9279-1",
                            "system": "http://loinc.org",
                            "display": "Respiratory rate"
                        },
                        {
                            "code": "86290005",
                            "system": "http://snomed.info/sct",
                            "display": "Respiratory rate (observable entity)"
                        }
                    ],
                    "text": "Respiratory rate"
                },
                "valueQuantity": {
                    "system": "http://unitsofmeasure.org",
                    "code": "/min",
                    "value": 22,
                    "unit": "per minute"
                },
                "identifier": [
                    {
                        "type": {
                            "coding": [
                                {
                                    "code": "OBI",
                                    "system": "http://terminology.hl7.org/CodeSystem/v2-0203"
                                }
                            ]
                        },
                        "system": "https://www.charite.de/fhir/CodeSystem/observation-identifiers",
                        "value": "9279-1_RespiratoryRate",
                        "assigner": {
                            "reference": "Organization/Charit\u00e9"
                        }
                    }
                ],
                "status": "final",
                "subject": {
                    "reference": "Patient/4ad4f71f-c9fd-403a-b2cd-73573021c385"
                },
                "effectiveDateTime": "2020-09-25"
            },
            "request": {
                "method": "POST",
                "url": "Observation"
            }
        },
        {
            "resource": {
                "resourceType": "Procedure",
                "id": "dialysis-completed",
                "meta": {
                    "profile": [
                        "https://www.netzwerk-universitaetsmedizin.de/fhir/StructureDefinition/dialysis"
                    ]
                },
                "status": "completed",
                "category": {
                    "coding": [
                        {
                            "code": "277132007",
                            "system": "http://snomed.info/sct",
                            "display": "Therapeutic procedure (procedure)"
                        }
                    ]
                },
                "code": {
                    "coding": [
                        {
                            "code": "108241001",
                            "system": "http://snomed.info/sct",
                            "display": "Dialysis procedure (procedure)"
                        }
                    ],
                    "text": "Dialysis"
                },
                "subject": {
                    "reference": "Patient/4ad4f71f-c9fd-403a-b2cd-73573021c385"
                },
                "_performedDateTime": {
                    "extension": [
                        {
                            "url": "http://hl7.org/fhir/StructureDefinition/data-absent-reason",
                            "valueCode": "unknown"
                        }
                    ]
                }
            },
            "request": {
                "method": "POST",
                "url": "Procedure"
            }
        },
        {
            "resource": {
                "resourceType": "Observation",
                "id": "6fa9e2be-d15a-4e77-81fc-056dda521875",
                "meta": {
                    "profile": [
                        "https://www.netzwerk-universitaetsmedizin.de/fhir/StructureDefinition/oxygen-saturation"
                    ]
                },
                "identifier": [
                    {
                        "type": {
                            "coding": [
                                {
                                    "system": "http://terminology.hl7.org/CodeSystem/v2-0203",
                                    "code": "OBI"
                                }
                            ]
                        },
                        "system": "https://www.charite.de/fhir/CodeSystem/lab-identifiers",
                        "value": "2708-6_oxygenSaturation",
                        "assigner": {
                            "reference": "Organization/Charit\u00e9"
                        }
                    }
                ],
                "status": "final",
                "category": [
                    {
                        "coding": [
                            {
                                "system": "http://terminology.hl7.org/CodeSystem/observation-category",
                                "code": "vital-signs"
                            }
                        ]
                    }
                ],
                "code": {
                    "coding": [
                        {
                            "system": "http://loinc.org",
                            "code": "2708-6",
                            "display": "Oxygen saturation in Arterial blood"
                        }
                    ],
                    "text": "Oxygen saturation in Arterial blood"
                },
                "subject": {
                    "reference": "Patient/4ad4f71f-c9fd-403a-b2cd-73573021c385"
                },
                "effectiveDateTime": "2020-09-21",
                "valueQuantity": {
                    "value": 98,
                    "unit": "%",
                    "system": "http://unitsofmeasure.org",
                    "code": "%"
                }
            },
            "request": {
                "method": "POST",
                "url": "Observation"
            }
        },
        {
            "resource": {
                "resourceType": "Consent",
                "id": "do-not-resuscitate-order-for-resuscitation",
                "meta": {
                    "profile": [
                        "https://www.netzwerk-universitaetsmedizin.de/fhir/StructureDefinition/do-not-resuscitate-order"
                    ]
                },
                "scope": {
                    "coding": [
                        {
                            "system": "http://terminology.hl7.org/CodeSystem/consentscope",
                            "code": "adr",
                            "display": "Advanced Care Directive"
                        }
                    ]
                },
                "category": [
                    {
                        "coding": [
                            {
                                "system": "http://terminology.hl7.org/CodeSystem/consentcategorycodes",
                                "code": "dnr",
                                "display": "Do Not Resuscitate"
                            }
                        ]
                    }
                ],
                "status": "active",
                "patient": {
                    "reference": "Patient/4ad4f71f-c9fd-403a-b2cd-73573021c385"
                },
                "dateTime": "2021-09-01",
                "policy": [
                    {
                        "uri": "https://www.aerzteblatt.de/archiv/65440/DNR-Anordnungen-Das-fehlende-Bindeglied"
                    }
                ],
                "provision": {
                    "code": [
                        {
                            "coding": [
                                {
                                    "code": "304252001",
                                    "system": "http://snomed.info/sct",
                                    "display": "For resuscitation"
                                }
                            ]
                        }
                    ]
                }
            },
            "request": {
                "method": "POST",
                "url": "Consent"
            }
        },
        {
            "resource": {
                "resourceType": "Observation",
                "id": "c9f96dd3-a77a-4aa9-9b12-43cd1972d9a4",
                "meta": {
                    "profile": [
                        "https://www.netzwerk-universitaetsmedizin.de/fhir/StructureDefinition/inhaled-oxygen-concentration"
                    ]
                },
                "identifier": [
                    {
                        "type": {
                            "coding": [
                                {
                                    "system": "http://terminology.hl7.org/CodeSystem/v2-0203",
                                    "code": "OBI"
                                }
                            ]
                        },
                        "system": "https://www.charite.de/fhir/CodeSystem/lab-identifiers",
                        "value": "3150-0_FiO2",
                        "assigner": {
                            "reference": "Organization/Charit\u00e9"
                        }
                    }
                ],
                "status": "final",
                "category": [
                    {
                        "coding": [
                            {
                                "system": "http://loinc.org",
                                "code": "26436-6"
                            },
                            {
                                "system": "http://terminology.hl7.org/CodeSystem/observation-category",
                                "code": "laboratory"
                            },
                            {
                                "system": "http://loinc.org",
                                "code": "18767-4"
                            }
                        ]
                    }
                ],
                "code": {
                    "coding": [
                        {
                            "system": "http://loinc.org",
                            "code": "3150-0",
                            "display": "Inhaled oxygen concentration"
                        }
                    ],
                    "text": "Inhaled oxygen concentration"
                },
                "subject": {
                    "reference": "Patient/4ad4f71f-c9fd-403a-b2cd-73573021c385"
                },
                "effectiveDateTime": "2020-09-21",
                "valueQuantity": {
                    "value": 21,
                    "unit": "%",
                    "system": "http://unitsofmeasure.org",
                    "code": "%"
                }
            },
            "request": {
                "method": "POST",
                "url": "Observation"
            }
        },
        {
            "resource": {
                "resourceType": "Observation",
                "id": "sars-cov-2-ab-ser-pl-ia-acnc",
                "meta": {
                    "profile": [
                        "https://www.netzwerk-universitaetsmedizin.de/fhir/StructureDefinition/sars-cov-2-ab-ser-pl-ia-acnc"
                    ]
                },
                "identifier": [
                    {
                        "type": {
                            "coding": [
                                {
                                    "system": "http://terminology.hl7.org/CodeSystem/v2-0203",
                                    "code": "OBI"
                                }
                            ]
                        },
                        "system": "https://www.charite.de/fhir/CodeSystem/lab-identifiers",
                        "value": "94769-7_SARS-CoV-2-Ab-Qn",
                        "assigner": {
                            "reference": "Organization/Charit\u00e9"
                        }
                    }
                ],
                "category": [
                    {
                        "coding": [
                            {
                                "system": "http://loinc.org",
                                "code": "26436-6"
                            },
                            {
                                "system": "http://terminology.hl7.org/CodeSystem/observation-category",
                                "code": "laboratory"
                            }
                        ]
                    }
                ],
                "code": {
                    "coding": [
                        {
                            "code": "94769-7",
                            "system": "http://loinc.org",
                            "display": "SARS-CoV-2 (COVID-19) Ab [Units/volume] in Serum or Plasma by Immunoassay"
                        }
                    ],
                    "text": "SARS-CoV-2 antibodies quantitative"
                },
                "valueQuantity": {
                    "system": "http://unitsofmeasure.org",
                    "code": "[IU]/mL",
                    "value": 240,
                    "unit": "[IU]/mL"
                },
                "status": "final",
                "subject": {
                    "reference": "Patient/4ad4f71f-c9fd-403a-b2cd-73573021c385"
                },
                "effectiveDateTime": "2020-10-19T08:43:33+02:00"
            },
            "request": {
                "method": "POST",
                "url": "Observation"
            }
        },
        {
            "resource": {
                "resourceType": "Observation",
                "id": "sars-cov-2-ab-panel-ser-pl-ia",
                "meta": {
                    "profile": [
                        "https://www.netzwerk-universitaetsmedizin.de/fhir/StructureDefinition/sars-cov-2-ab-pnl-ser-pl-ia"
                    ]
                },
                "identifier": [
                    {
                        "type": {
                            "coding": [
                                {
                                    "system": "http://terminology.hl7.org/CodeSystem/v2-0203",
                                    "code": "OBI"
                                }
                            ]
                        },
                        "system": "https://www.charite.de/fhir/CodeSystem/lab-identifiers",
                        "value": "94504-8_SARS-CoV-2-Ab-Panel",
                        "assigner": {
                            "reference": "Organization/Charit\u00e9"
                        }
                    }
                ],
                "category": [
                    {
                        "coding": [
                            {
                                "system": "http://loinc.org",
                                "code": "26436-6"
                            },
                            {
                                "system": "http://terminology.hl7.org/CodeSystem/observation-category",
                                "code": "laboratory"
                            }
                        ]
                    }
                ],
                "code": {
                    "coding": [
                        {
                            "code": "94504-8",
                            "system": "http://loinc.org",
                            "display": "SARS-CoV-2 (COVID-19) Ab panel - Serum or Plasma by Immunoassay"
                        }
                    ],
                    "text": "SARS-CoV-2 antibodies panel"
                },
                "status": "final",
                "subject": {
                    "reference": "Patient/4ad4f71f-c9fd-403a-b2cd-73573021c385"
                },
                "effectiveDateTime": "2020-10-19T08:43:33+02:00",
                "hasMember": [
                    {
                        "reference": "Observation/sars-cov-2-ab-ser-pl-ia-acnc"
                    },
                    {
                        "reference": "Observation/sars-cov-2-igg-ser-pl-ia-acnc"
                    },
                    {
                        "reference": "Observation/sars-cov-2-igg-ser-pl-ql-ia"
                    },
                    {
                        "reference": "Observation/sars-cov-2-igm-ser-pl-ia-acnc"
                    },
                    {
                        "reference": "Observation/sars-cov-2-igm-ser-pl-ql-ia"
                    },
                    {
                        "reference": "Observation/sars-cov-2-iga-ser-pl-ia-acnc"
                    },
                    {
                        "reference": "Observation/sars-cov-2-iga-ser-pl-ql-ia"
                    }
                ]
            },
            "request": {
                "method": "POST",
                "url": "Observation"
            }
        },
        {
            "resource": {
                "resourceType": "Observation",
                "id": "body-weight",
                "meta": {
                    "profile": [
                        "https://www.netzwerk-universitaetsmedizin.de/fhir/StructureDefinition/body-weight"
                    ]
                },
                "category": [
                    {
                        "coding": [
                            {
                                "code": "vital-signs",
                                "system": "http://terminology.hl7.org/CodeSystem/observation-category"
                            }
                        ]
                    }
                ],
                "code": {
                    "coding": [
                        {
                            "code": "29463-7",
                            "system": "http://loinc.org",
                            "display": "Body weight"
                        },
                        {
                            "code": "27113001",
                            "system": "http://snomed.info/sct",
                            "display": "Body weight (observable entity)"
                        }
                    ],
                    "text": "Body weight"
                },
                "valueQuantity": {
                    "system": "http://unitsofmeasure.org",
                    "value": 84,
                    "code": "kg",
                    "unit": "kilogram"
                },
                "identifier": [
                    {
                        "type": {
                            "coding": [
                                {
                                    "code": "OBI",
                                    "system": "http://terminology.hl7.org/CodeSystem/v2-0203"
                                }
                            ]
                        },
                        "system": "https://www.charite.de/fhir/CodeSystem/observation-identifiers",
                        "value": "29463-7_BodyWeight",
                        "assigner": {
                            "reference": "Organization/Charit\u00e9"
                        }
                    }
                ],
                "status": "final",
                "subject": {
                    "reference": "Patient/4ad4f71f-c9fd-403a-b2cd-73573021c385"
                },
                "effectiveDateTime": "2020-10-02"
            },
            "request": {
                "method": "POST",
                "url": "Observation"
            }
        },
        {
            "resource": {
                "resourceType": "Observation",
                "id": "sars-cov-2-igg-ser-pl-ia-acnc",
                "meta": {
                    "profile": [
                        "https://www.netzwerk-universitaetsmedizin.de/fhir/StructureDefinition/sars-cov-2-igg-ser-pl-ia-acnc"
                    ]
                },
                "identifier": [
                    {
                        "type": {
                            "coding": [
                                {
                                    "system": "http://terminology.hl7.org/CodeSystem/v2-0203",
                                    "code": "OBI"
                                }
                            ]
                        },
                        "system": "https://www.charite.de/fhir/CodeSystem/lab-identifiers",
                        "value": "94505-5_SARS-CoV-2-IgG-Qn",
                        "assigner": {
                            "reference": "Organization/Charit\u00e9"
                        }
                    }
                ],
                "category": [
                    {
                        "coding": [
                            {
                                "system": "http://loinc.org",
                                "code": "26436-6"
                            },
                            {
                                "system": "http://terminology.hl7.org/CodeSystem/observation-category",
                                "code": "laboratory"
                            }
                        ]
                    }
                ],
                "code": {
                    "coding": [
                        {
                            "code": "94505-5",
                            "system": "http://loinc.org",
                            "display": "SARS-CoV-2 (COVID-19) IgG Ab [Units/volume] in Serum or Plasma by Immunoassay"
                        }
                    ],
                    "text": "SARS-CoV-2 IgG antibodies quantitative"
                },
                "valueQuantity": {
                    "system": "http://unitsofmeasure.org",
                    "code": "[arb'U]/mL",
                    "value": 20,
                    "unit": "[arb'U]/mL"
                },
                "status": "final",
                "subject": {
                    "reference": "Patient/4ad4f71f-c9fd-403a-b2cd-73573021c385"
                },
                "effectiveDateTime": "2020-10-19T08:43:33+02:00"
            },
            "request": {
                "method": "POST",
                "url": "Observation"
            }
        },
        {
            "resource": {
                "resourceType": "Procedure",
                "id": "respiratory-therapy-not-done",
                "meta": {
                    "profile": [
                        "https://www.netzwerk-universitaetsmedizin.de/fhir/StructureDefinition/respiratory-therapies"
                    ]
                },
                "status": "not-done",
                "category": {
                    "coding": [
                        {
                            "code": "277132007",
                            "system": "http://snomed.info/sct",
                            "display": "Therapeutic procedure (procedure)"
                        }
                    ]
                },
                "code": {
                    "coding": [
                        {
                            "code": "40617009",
                            "system": "http://snomed.info/sct",
                            "display": "Artificial respiration (procedure)"
                        }
                    ],
                    "text": "Artificial respiration"
                },
                "subject": {
                    "reference": "Patient/4ad4f71f-c9fd-403a-b2cd-73573021c385"
                },
                "_performedDateTime": {
                    "extension": [
                        {
                            "url": "http://hl7.org/fhir/StructureDefinition/data-absent-reason",
                            "valueCode": "unknown"
                        }
                    ]
                }
            },
            "request": {
                "method": "POST",
                "url": "Procedure"
            }
        },
        {
            "resource": {
                "resourceType": "Observation",
                "id": "interventional-clinical-trial-participation-no",
                "meta": {
                    "profile": [
                        "https://www.netzwerk-universitaetsmedizin.de/fhir/StructureDefinition/interventional-clinical-trial-participation"
                    ]
                },
                "category": [
                    {
                        "coding": [
                            {
                                "code": "survey",
                                "system": "http://terminology.hl7.org/CodeSystem/observation-category"
                            }
                        ]
                    }
                ],
                "code": {
                    "coding": [
                        {
                            "code": "03",
                            "system": "https://www.netzwerk-universitaetsmedizin.de/fhir/CodeSystem/ecrf-parameter-codes",
                            "display": "Participation in interventional clinical trials"
                        }
                    ],
                    "text": "Has the patient participated in one or more interventional clinical trials?"
                },
                "valueCodeableConcept": {
                    "coding": [
                        {
                            "system": "http://snomed.info/sct",
                            "code": "373067005",
                            "display": "No (qualifier value)"
                        }
                    ],
                    "text": "Patient is not enrolled in other studies"
                },
                "identifier": [
                    {
                        "type": {
                            "coding": [
                                {
                                    "code": "OBI",
                                    "system": "http://terminology.hl7.org/CodeSystem/v2-0203"
                                }
                            ]
                        },
                        "system": "https://www.charite.de/fhir/CodeSystem/observation-identifiers",
                        "value": "ecrf_03_InterventionalClinicalTrialsParticipation",
                        "assigner": {
                            "reference": "Organization/Charit\u00e9"
                        }
                    }
                ],
                "status": "final",
                "subject": {
                    "reference": "Patient/4ad4f71f-c9fd-403a-b2cd-73573021c385"
                },
                "effectiveDateTime": "2020-10-16T08:49:21+02:00"
            },
            "request": {
                "method": "POST",
                "url": "Observation"
            }
        },
        {
            "resource": {
                "resourceType": "Condition",
                "id": "chronic-neurological-mental-disease-present",
                "meta": {
                    "profile": [
                        "https://www.netzwerk-universitaetsmedizin.de/fhir/StructureDefinition/chronic-neurological-mental-diseases"
                    ]
                },
                "verificationStatus": {
                    "coding": [
                        {
                            "system": "http://terminology.hl7.org/CodeSystem/condition-ver-status",
                            "code": "confirmed",
                            "display": "Confirmed"
                        },
                        {
                            "system": "http://snomed.info/sct",
                            "code": "410605003",
                            "display": "Confirmed present (qualifier value)"
                        }
                    ]
                },
                "clinicalStatus": {
                    "coding": [
                        {
                            "code": "active",
                            "system": "http://terminology.hl7.org/CodeSystem/condition-clinical",
                            "display": "Active"
                        }
                    ]
                },
                "category": [
                    {
                        "coding": [
                            {
                                "code": "394591006",
                                "system": "http://snomed.info/sct",
                                "display": "Neurology"
                            },
                            {
                                "code": "394587001",
                                "system": "http://snomed.info/sct",
                                "display": "Psychiatry"
                            }
                        ]
                    }
                ],
                "code": {
                    "coding": [
                        {
                            "code": "74732009",
                            "system": "http://snomed.info/sct",
                            "display": "Mental disorder"
                        }
                    ]
                },
                "subject": {
                    "reference": "Patient/4ad4f71f-c9fd-403a-b2cd-73573021c385"
                },
                "recordedDate": "2020-10-06"
            },
            "request": {
                "method": "POST",
                "url": "Condition"
            }
        }
    ]
}